|6.6.6
primRef_quadrant0_1.tab                                                                             
           2
T(K)    
   300.00000000000000     
   31.623076923076923     
          40
P(bar)  
   1.0000000000000000     
   11965.794871794871     
          40
           6
T(K)           P(bar)         mode           rho,kg/m3      Ks,bar         Gs,bar        
  300.000        1.00000      -0.403600E+011   3140.54        922659.        611573.     
  331.623        1.00000      -0.402536E+011   3139.05        920816.        609010.     
  363.246        1.00000      -0.401419E+011   3137.48        918877.        606321.     
  394.869        1.00000      -0.400258E+011   3135.84        916856.        603531.     
  426.492        1.00000      -0.399062E+011   3134.15        914765.        600658.     
  458.115        1.00000      -0.397836E+011   3132.40        912614.        597715.     
  489.738        1.00000      -0.396585E+011   3130.61        910409.        594713.     
  521.362        1.00000      -0.395313E+011   3128.78        908156.        591662.     
  552.985        1.00000      -0.394023E+011   3126.92        905860.        588569.     
  584.608        1.00000      -0.392718E+011   3125.02        903525.        585438.     
  616.231        1.00000      -0.391399E+011   3123.10        901152.        582276.     
  647.854        1.00000      -0.390068E+011   3121.14        898744.        579085.     
  679.477        1.00000      -0.388726E+011   3119.16        896303.        575868.     
  711.100        1.00000      -0.387375E+011   3117.15        893830.        572629.     
  742.723        1.00000      -0.386015E+011   3115.12        891327.        569369.     
  774.346        1.00000      -0.384647E+011   3113.06        888794.        566091.     
  805.969        1.00000      -0.383272E+011   3110.98        886231.        562795.     
  837.592        1.00000      -0.381891E+011   3108.87        883640.        559483.     
  869.215        1.00000      -0.380503E+011   3106.74        881020.        556156.     
  900.838        1.00000      -0.379110E+011   3104.59        878373.        552815.     
  932.462        1.00000      -0.377711E+011   3102.42        875696.        549461.     
  964.085        1.00000      -0.376307E+011   3100.23        872992.        546094.     
  995.708        1.00000      -0.374899E+011   3098.01        870259.        542715.     
  1027.33        1.00000      -0.373486E+011   3095.77        867497.        539325.     
  1058.95        1.00000      -0.372068E+011   3093.50        864707.        535923.     
  1090.58        1.00000      -0.370647E+011   3091.22        861887.        532510.     
  1122.20        1.00000      -0.369221E+011   3088.91        859038.        529087.     
  1153.82        1.00000      -0.367791E+011   3086.58        856158.        525653.     
  1185.45        1.00000      -0.366357E+011   3084.22        853247.        522208.     
  1217.07        1.00000      -0.364919E+011   3081.84        850305.        518753.     
  1248.69        1.00000      -0.363477E+011   3079.44        847331.        515288.     
  1280.32        1.00000      -0.362031E+011   3077.01        844324.        511813.     
  1311.94        1.00000      -0.360582E+011   3074.56        841283.        508327.     
  1343.56        1.00000      -0.359129E+011   3072.08        838208.        504830.     
  1375.18        1.00000      -0.357672E+011   3069.57        835096.        501324.     
  1406.81        1.00000      -0.356211E+011   3067.04        831948.        497806.     
  1438.43        1.00000      -0.354746E+011   3064.48        828763.        494278.     
  1470.05        1.00000      -0.353278E+011   3061.89        825538.        490739.     
  1501.68        1.00000      -0.351805E+011   3059.27        822273.        487188.     
  1533.30        1.00000      -0.350329E+011   3056.62        818965.        483626.     
  300.000        11966.8      -0.424769E+011   3398.22       0.113788E+007   715854.     
  331.623        11966.8      -0.423571E+011   3396.16       0.113200E+007   712860.     
  363.246        11966.8      -0.422312E+011   3393.97       0.112581E+007   709716.     
  394.869        11966.8      -0.421003E+011   3391.69       0.111936E+007   706452.     
  426.492        11966.8      -0.419652E+011   3389.32       0.111269E+007   703089.     
  458.115        11966.8      -0.418267E+011   3386.86       0.110582E+007   699643.     
  489.738        11966.8      -0.416853E+011   3384.35       0.109879E+007   696130.     
  521.362        11966.8      -0.415413E+011   3381.76       0.109162E+007   692558.     
  552.985        11966.8      -0.413953E+011   3379.12       0.108432E+007   688936.     
  584.608        11966.8      -0.412473E+011   3376.43       0.107690E+007   685273.     
  616.231        11966.8      -0.410977E+011   3373.68       0.106937E+007   681572.     
  647.854        11966.8      -0.409467E+011   3370.89       0.106175E+007   677839.     
  679.477        11966.8      -0.407943E+011   3368.05       0.105403E+007   674077.     
  711.100        11966.8      -0.406408E+011   3365.16       0.104623E+007   670290.     
  742.723        11966.8      -0.404862E+011   3362.23       0.103834E+007   666480.     
  774.346        11966.8      -0.403305E+011   3359.26       0.103037E+007   662650.     
  805.969        11966.8      -0.401740E+011   3356.25       0.102233E+007   658801.     
  837.592        11966.8      -0.400166E+011   3353.19       0.101422E+007   654935.     
  869.215        11966.8      -0.398584E+011   3350.09       0.100603E+007   651052.     
  900.838        11966.8      -0.396994E+011   3346.94        997770.        647155.     
  932.462        11966.8      -0.395396E+011   3343.75        989440.        643244.     
  964.085        11966.8      -0.393792E+011   3340.52        981040.        639320.     
  995.708        11966.8      -0.392181E+011   3337.25        972570.        635384.     
  1027.33        11966.8      -0.390563E+011   3333.93        964030.        631435.     
  1058.95        11966.8      -0.388938E+011   3330.57        955420.        627475.     
  1090.58        11966.8      -0.387307E+011   3327.16        946740.        623504.     
  1122.20        11966.8      -0.385670E+011   3323.70        937988.        619521.     
  1153.82        11966.8      -0.384026E+011   3320.20        929163.        615529.     
  1185.45        11966.8      -0.382376E+011   3316.65        920266.        611525.     
  1217.07        11966.8      -0.380719E+011   3313.04        911294.        607511.     
  1248.69        11966.8      -0.379056E+011   3309.39        902245.        603486.     
  1280.32        11966.8      -0.377387E+011   3305.68        893119.        599451.     
  1311.94        11966.8      -0.375711E+011   3301.92        883914.        595405.     
  1343.56        11966.8      -0.374029E+011   3298.10        874627.        591348.     
  1375.18        11966.8      -0.372339E+011   3294.23        865257.        587280.     
  1406.81        11966.8      -0.370643E+011   3290.29        855800.        583201.     
  1438.43        11966.8      -0.368940E+011   3286.30        846255.        579110.     
  1470.05        11966.8      -0.367229E+011   3282.24        836619.        575007.     
  1501.68        11966.8      -0.365511E+011   3278.11        826888.        570892.     
  1533.30        11966.8      -0.363785E+011   3273.92        817060.        566764.     
  300.000        23932.6      -0.417498E+011   3435.74       0.122552E+007   735665.     
  331.623        23932.6      -0.416322E+011   3433.84       0.121981E+007   732692.     
  363.246        23932.6      -0.415085E+011   3431.84       0.121378E+007   729570.     
  394.869        23932.6      -0.413798E+011   3429.73       0.120751E+007   726326.     
  426.492        23932.6      -0.412471E+011   3427.55       0.120102E+007   722983.     
  458.115        23932.6      -0.411110E+011   3425.30       0.119434E+007   719558.     
  489.738        23932.6      -0.409720E+011   3422.99       0.118751E+007   716065.     
  521.362        23932.6      -0.408306E+011   3420.62       0.118054E+007   712514.     
  552.985        23932.6      -0.406871E+011   3418.20       0.117345E+007   708914.     
  584.608        23932.6      -0.405418E+011   3415.73       0.116625E+007   705273.     
  616.231        23932.6      -0.403949E+011   3413.22       0.115895E+007   701595.     
  647.854        23932.6      -0.402466E+011   3410.66       0.115156E+007   697885.     
  679.477        23932.6      -0.400971E+011   3408.07       0.114408E+007   694148.     
  711.100        23932.6      -0.399465E+011   3405.44       0.113652E+007   690387.     
  742.723        23932.6      -0.397948E+011   3402.77       0.112889E+007   686603.     
  774.346        23932.6      -0.396423E+011   3400.06       0.112119E+007   682801.     
  805.969        23932.6      -0.394889E+011   3397.32       0.111343E+007   678981.     
  837.592        23932.6      -0.393347E+011   3394.54       0.110559E+007   675145.     
  869.215        23932.6      -0.391798E+011   3391.72       0.109770E+007   671294.     
  900.838        23932.6      -0.390242E+011   3388.87       0.108974E+007   667431.     
  932.462        23932.6      -0.388680E+011   3385.99       0.108172E+007   663555.     
  964.085        23932.6      -0.387111E+011   3383.07       0.107364E+007   659667.     
  995.708        23932.6      -0.385537E+011   3380.11       0.106550E+007   655769.     
  1027.33        23932.6      -0.383957E+011   3377.12       0.105731E+007   651861.     
  1058.95        23932.6      -0.382372E+011   3374.10       0.104905E+007   647943.     
  1090.58        23932.6      -0.380781E+011   3371.03       0.104074E+007   644016.     
  1122.20        23932.6      -0.378912E+011   3365.60       0.102726E+007   638461.     
  1153.82        23932.6      -0.377313E+011   3362.48       0.101890E+007   634526.     
  1185.45        23932.6      -0.375710E+011   3359.31       0.101048E+007   630583.     
  1217.07        23932.6      -0.374101E+011   3356.11       0.100200E+007   626631.     
  1248.69        23932.6      -0.372488E+011   3352.87        993454.        622672.     
  1280.32        23932.6      -0.370870E+011   3349.59        984849.        618705.     
  1311.94        23932.6      -0.369247E+011   3346.26        976181.        614730.     
  1343.56        23932.6      -0.367619E+011   3342.90        967450.        610748.     
  1375.18        23932.6      -0.365986E+011   3339.49        958653.        606758.     
  1406.81        23932.6      -0.364349E+011   3336.03        949789.        602760.     
  1438.43        23932.6      -0.362706E+011   3332.53        940857.        598754.     
  1470.05        23932.6      -0.361058E+011   3328.99        931856.        594740.     
  1501.68        23932.6      -0.359404E+011   3325.39        922783.        590719.     
  1533.30        23932.6      -0.357746E+011   3321.75        913637.        586688.     
  300.000        35898.4      -0.410243E+011   3474.50       0.131023E+007   762588.     
  331.623        35898.4      -0.408359E+011   3466.76       0.129914E+007   750135.     
  363.246        35898.4      -0.407142E+011   3464.91       0.129332E+007   747033.     
  394.869        35898.4      -0.405876E+011   3462.98       0.128726E+007   743810.     
  426.492        35898.4      -0.404569E+011   3460.97       0.128098E+007   740488.     
  458.115        35898.4      -0.403229E+011   3458.89       0.127454E+007   737084.     
  489.738        35898.4      -0.401860E+011   3456.76       0.126794E+007   733611.     
  521.362        35898.4      -0.400468E+011   3454.58       0.126121E+007   730081.     
  552.985        35898.4      -0.399056E+011   3452.36       0.125436E+007   726503.     
  584.608        35898.4      -0.397625E+011   3450.09       0.124741E+007   722883.     
  616.231        35898.4      -0.396180E+011   3447.78       0.124037E+007   719227.     
  647.854        35898.4      -0.394721E+011   3445.44       0.123324E+007   715540.     
  679.477        35898.4      -0.393250E+011   3443.06       0.122603E+007   711826.     
  711.100        35898.4      -0.391769E+011   3440.65       0.121876E+007   708089.     
  742.723        35898.4      -0.390278E+011   3438.20       0.121141E+007   704330.     
  774.346        35898.4      -0.388778E+011   3435.73       0.120400E+007   700553.     
  805.969        35898.4      -0.387270E+011   3433.22       0.119652E+007   696759.     
  837.592        35898.4      -0.385756E+011   3430.68       0.118899E+007   692950.     
  869.215        35898.4      -0.384234E+011   3428.11       0.118140E+007   689127.     
  900.838        35898.4      -0.382707E+011   3425.52       0.117376E+007   685293.     
  932.462        35898.4      -0.381174E+011   3422.89       0.116607E+007   681447.     
  964.085        35898.4      -0.379635E+011   3420.23       0.115832E+007   677590.     
  995.708        35898.4      -0.378091E+011   3417.55       0.115052E+007   673724.     
  1027.33        35898.4      -0.376543E+011   3414.83       0.114267E+007   669850.     
  1058.95        35898.4      -0.374989E+011   3412.09       0.113477E+007   665967.     
  1090.58        35898.4      -0.373432E+011   3409.32       0.112682E+007   662076.     
  1122.20        35898.4      -0.371870E+011   3406.51       0.111882E+007   658178.     
  1153.82        35898.4      -0.370303E+011   3403.68       0.111077E+007   654273.     
  1185.45        35898.4      -0.368733E+011   3400.81       0.110267E+007   650361.     
  1217.07        35898.4      -0.367159E+011   3397.92       0.109452E+007   646443.     
  1248.69        35898.4      -0.365581E+011   3394.99       0.108632E+007   642518.     
  1280.32        35898.4      -0.363998E+011   3392.03       0.107806E+007   638588.     
  1311.94        35898.4      -0.362413E+011   3389.03       0.106977E+007   634652.     
  1343.56        35898.4      -0.360823E+011   3386.01       0.106141E+007   630710.     
  1375.18        35898.4      -0.359229E+011   3382.95       0.105301E+007   626763.     
  1406.81        35898.4      -0.357632E+011   3379.85       0.104455E+007   622809.     
  1438.43        35898.4      -0.356031E+011   3376.72       0.103603E+007   618851.     
  1470.05        35898.4      -0.354426E+011   3373.55       0.102746E+007   614887.     
  1501.68        35898.4      -0.352817E+011   3370.35       0.101884E+007   610917.     
  1533.30        35898.4      -0.351205E+011   3367.11       0.101015E+007   606942.     
  300.000        47864.2      -0.413349E+011   3600.52       0.145947E+007   919205.     
  331.623        47864.2      -0.412072E+011   3597.85       0.145521E+007   915785.     
  363.246        47864.2      -0.410725E+011   3595.03       0.145072E+007   912173.     
  394.869        47864.2      -0.409319E+011   3592.08       0.144603E+007   908404.     
  426.492        47864.2      -0.407865E+011   3589.02       0.144118E+007   904504.     
  458.115        47864.2      -0.406372E+011   3585.87       0.143620E+007   900495.     
  489.738        47864.2      -0.404846E+011   3582.65       0.143111E+007   896394.     
  521.362        47864.2      -0.403291E+011   3579.35       0.142592E+007   892215.     
  552.985        47864.2      -0.401713E+011   3575.99       0.142065E+007   887969.     
  584.608        47864.2      -0.400115E+011   3572.58       0.141532E+007   883664.     
  616.231        47864.2      -0.391082E+011   3506.00       0.134632E+007   776962.     
  647.854        47864.2      -0.386623E+011   3478.29       0.131321E+007   732601.     
  679.477        47864.2      -0.385172E+011   3476.09       0.130623E+007   728902.     
  711.100        47864.2      -0.383710E+011   3473.86       0.129919E+007   725179.     
  742.723        47864.2      -0.382240E+011   3471.61       0.129209E+007   721436.     
  774.346        47864.2      -0.380761E+011   3469.33       0.128492E+007   717674.     
  805.969        47864.2      -0.379274E+011   3467.02       0.127770E+007   713896.     
  837.592        47864.2      -0.377781E+011   3464.68       0.127043E+007   710104.     
  869.215        47864.2      -0.376282E+011   3462.32       0.126310E+007   706299.     
  900.838        47864.2      -0.374776E+011   3459.94       0.125573E+007   702483.     
  932.462        47864.2      -0.373266E+011   3457.53       0.124831E+007   698656.     
  964.085        47864.2      -0.371751E+011   3455.09       0.124084E+007   694819.     
  995.708        47864.2      -0.370231E+011   3452.63       0.123333E+007   690973.     
  1027.33        47864.2      -0.368706E+011   3450.14       0.122577E+007   687119.     
  1058.95        47864.2      -0.367178E+011   3447.63       0.121817E+007   683258.     
  1090.58        47864.2      -0.365646E+011   3445.10       0.121052E+007   679390.     
  1122.20        47864.2      -0.364110E+011   3442.54       0.120283E+007   675516.     
  1153.82        47864.2      -0.362570E+011   3439.95       0.119510E+007   671636.     
  1185.45        47864.2      -0.361027E+011   3437.34       0.118732E+007   667750.     
  1217.07        47864.2      -0.359481E+011   3434.70       0.117951E+007   663859.     
  1248.69        47864.2      -0.357931E+011   3432.04       0.117165E+007   659962.     
  1280.32        47864.2      -0.356378E+011   3429.35       0.116374E+007   656061.     
  1311.94        47864.2      -0.354822E+011   3426.64       0.115580E+007   652155.     
  1343.56        47864.2      -0.353263E+011   3423.89       0.114781E+007   648245.     
  1375.18        47864.2      -0.351701E+011   3421.12       0.113977E+007   644331.     
  1406.81        47864.2      -0.350136E+011   3418.32       0.113169E+007   640412.     
  1438.43        47864.2      -0.348568E+011   3415.50       0.112357E+007   636490.     
  1470.05        47864.2      -0.346997E+011   3412.64       0.111540E+007   632563.     
  1501.68        47864.2      -0.345423E+011   3409.75       0.110718E+007   628632.     
  1533.30        47864.2      -0.343846E+011   3406.84       0.109892E+007   624698.     
  300.000        59830.0      -0.405585E+011   3636.90       0.153642E+007   945297.     
  331.623        59830.0      -0.404324E+011   3634.32       0.153220E+007   941905.     
  363.246        59830.0      -0.402991E+011   3631.59       0.152774E+007   938319.     
  394.869        59830.0      -0.401601E+011   3628.74       0.152309E+007   934574.     
  426.492        59830.0      -0.399350E+011   3618.61       0.151109E+007   924345.     
  458.115        59830.0      -0.397875E+011   3615.58       0.150617E+007   920385.     
  489.738        59830.0      -0.396366E+011   3612.46       0.150115E+007   916334.     
  521.362        59830.0      -0.394829E+011   3609.28       0.149603E+007   912204.     
  552.985        59830.0      -0.393269E+011   3606.05       0.149083E+007   908006.     
  584.608        59830.0      -0.391688E+011   3602.76       0.148556E+007   903751.     
  616.231        59830.0      -0.390089E+011   3599.42       0.148023E+007   899444.     
  647.854        59830.0      -0.388475E+011   3596.04       0.147485E+007   895093.     
  679.477        59830.0      -0.386848E+011   3592.62       0.146943E+007   890701.     
  711.100        59830.0      -0.385209E+011   3589.17       0.146396E+007   886275.     
  742.723        59830.0      -0.383560E+011   3585.69       0.145846E+007   881816.     
  774.346        59830.0      -0.381901E+011   3582.17       0.145293E+007   877328.     
  805.969        59830.0      -0.380235E+011   3578.63       0.144737E+007   872813.     
  837.592        59830.0      -0.378561E+011   3575.06       0.144178E+007   868275.     
  869.215        59830.0      -0.376880E+011   3571.47       0.143617E+007   863714.     
  900.838        59830.0      -0.375193E+011   3567.84       0.143053E+007   859132.     
  932.462        59830.0      -0.368865E+011   3523.74       0.137201E+007   776500.     
  964.085        59830.0      -0.363516E+011   3487.98       0.132152E+007   711455.     
  995.708        59830.0      -0.362015E+011   3485.71       0.131426E+007   707621.     
  1027.33        59830.0      -0.360510E+011   3483.42       0.130695E+007   703779.     
  1058.95        59830.0      -0.359001E+011   3481.11       0.129960E+007   699930.     
  1090.58        59830.0      -0.357489E+011   3478.77       0.129221E+007   696076.     
  1122.20        59830.0      -0.355973E+011   3476.42       0.128479E+007   692215.     
  1153.82        59830.0      -0.354455E+011   3474.04       0.127733E+007   688349.     
  1185.45        59830.0      -0.352933E+011   3471.64       0.126983E+007   684478.     
  1217.07        59830.0      -0.351408E+011   3469.22       0.126229E+007   680603.     
  1248.69        59830.0      -0.349881E+011   3466.78       0.125472E+007   676723.     
  1280.32        59830.0      -0.348350E+011   3464.31       0.124711E+007   672839.     
  1311.94        59830.0      -0.346818E+011   3461.83       0.123946E+007   668952.     
  1343.56        59830.0      -0.345282E+011   3459.32       0.123177E+007   665061.     
  1375.18        59830.0      -0.343745E+011   3456.79       0.122405E+007   661166.     
  1406.81        59830.0      -0.342204E+011   3454.23       0.121629E+007   657269.     
  1438.43        59830.0      -0.340662E+011   3451.65       0.120849E+007   653368.     
  1470.05        59830.0      -0.339117E+011   3449.05       0.120065E+007   649464.     
  1501.68        59830.0      -0.337570E+011   3446.42       0.119278E+007   645557.     
  1533.30        59830.0      -0.336020E+011   3443.77       0.118486E+007   641648.     
  300.000        71795.8      -0.400457E+011   3697.00       0.167111E+007   999300.     
  331.623        71795.8      -0.397015E+011   3675.39       0.162752E+007   975066.     
  363.246        71795.8      -0.394217E+011   3659.83       0.159688E+007   957730.     
  394.869        71795.8      -0.392842E+011   3657.07       0.159228E+007   954032.     
  426.492        71795.8      -0.391419E+011   3654.21       0.158753E+007   950201.     
  458.115        71795.8      -0.389957E+011   3651.27       0.158264E+007   946260.     
  489.738        71795.8      -0.388461E+011   3648.25       0.157763E+007   942225.     
  521.362        71795.8      -0.386936E+011   3645.16       0.157254E+007   938112.     
  552.985        71795.8      -0.385388E+011   3642.01       0.156736E+007   933930.     
  584.608        71795.8      -0.383819E+011   3638.82       0.156211E+007   929690.     
  616.231        71795.8      -0.382233E+011   3635.58       0.155680E+007   925398.     
  647.854        71795.8      -0.380631E+011   3632.30       0.155144E+007   921061.     
  679.477        71795.8      -0.379016E+011   3628.98       0.154604E+007   916683.     
  711.100        71795.8      -0.377389E+011   3625.63       0.154059E+007   912270.     
  742.723        71795.8      -0.375751E+011   3622.25       0.153511E+007   907825.     
  774.346        71795.8      -0.374105E+011   3618.83       0.152959E+007   903350.     
  805.969        71795.8      -0.372450E+011   3615.39       0.152405E+007   898849.     
  837.592        71795.8      -0.370027E+011   3605.00       0.151167E+007   888275.     
  869.215        71795.8      -0.368363E+011   3601.52       0.150612E+007   883761.     
  900.838        71795.8      -0.366692E+011   3598.03       0.150055E+007   879227.     
  932.462        71795.8      -0.365016E+011   3594.51       0.149496E+007   874673.     
  964.085        71795.8      -0.363335E+011   3590.97       0.148935E+007   870103.     
  995.708        71795.8      -0.361650E+011   3587.41       0.148373E+007   865515.     
  1027.33        71795.8      -0.359961E+011   3583.83       0.147810E+007   860912.     
  1058.95        71795.8      -0.358267E+011   3580.23       0.147245E+007   856294.     
  1090.58        71795.8      -0.356571E+011   3576.61       0.146678E+007   851662.     
  1122.20        71795.8      -0.354871E+011   3572.98       0.146111E+007   847017.     
  1153.82        71795.8      -0.353168E+011   3569.32       0.145543E+007   842359.     
  1185.45        71795.8      -0.351463E+011   3565.65       0.144973E+007   837689.     
  1217.07        71795.8      -0.349754E+011   3561.96       0.144402E+007   833007.     
  1248.69        71795.8      -0.341488E+011   3499.55       0.133588E+007   692903.     
  1280.32        71795.8      -0.339975E+011   3497.27       0.132852E+007   689028.     
  1311.94        71795.8      -0.338461E+011   3494.98       0.132112E+007   685150.     
  1343.56        71795.8      -0.336944E+011   3492.67       0.131370E+007   681268.     
  1375.18        71795.8      -0.335425E+011   3490.34       0.130624E+007   677384.     
  1406.81        71795.8      -0.333904E+011   3487.99       0.129875E+007   673497.     
  1438.43        71795.8      -0.332382E+011   3485.62       0.129123E+007   669608.     
  1470.05        71795.8      -0.330857E+011   3483.23       0.128367E+007   665717.     
  1501.68        71795.8      -0.329330E+011   3480.82       0.127608E+007   661823.     
  1533.30        71795.8      -0.327802E+011   3478.39       0.126845E+007   657928.     
  300.000        83761.6      -0.395705E+011   3761.10       0.181852E+007  0.106069E+007
  331.623        83761.6      -0.393884E+011   3753.63       0.180316E+007  0.105115E+007
  363.246        83761.6      -0.391814E+011   3744.48       0.178436E+007  0.103975E+007
  394.869        83761.6      -0.389493E+011   3733.51       0.176197E+007  0.102644E+007
  426.492        83761.6      -0.386917E+011   3720.60       0.173581E+007  0.101117E+007
  458.115        83761.6      -0.384076E+011   3705.60       0.170569E+007   993882.     
  489.738        83761.6      -0.380959E+011   3688.33       0.167139E+007   974495.     
  521.362        83761.6      -0.378033E+011   3672.87       0.164121E+007   957346.     
  552.985        83761.6      -0.376499E+011   3669.82       0.163609E+007   953207.     
  584.608        83761.6      -0.374944E+011   3666.73       0.163089E+007   949008.     
  616.231        83761.6      -0.373372E+011   3663.59       0.162564E+007   944759.     
  647.854        83761.6      -0.371784E+011   3660.41       0.162034E+007   940463.     
  679.477        83761.6      -0.370184E+011   3657.20       0.161499E+007   936128.     
  711.100        83761.6      -0.368571E+011   3653.95       0.160960E+007   931758.     
  742.723        83761.6      -0.366948E+011   3650.68       0.160417E+007   927355.     
  774.346        83761.6      -0.365316E+011   3647.38       0.159871E+007   922923.     
  805.969        83761.6      -0.363675E+011   3644.05       0.159323E+007   918465.     
  837.592        83761.6      -0.362028E+011   3640.69       0.158772E+007   913983.     
  869.215        83761.6      -0.360373E+011   3637.31       0.158218E+007   909479.     
  900.838        83761.6      -0.358713E+011   3633.91       0.157662E+007   904955.     
  932.462        83761.6      -0.357048E+011   3630.49       0.157105E+007   900412.     
  964.085        83761.6      -0.355377E+011   3627.05       0.156546E+007   895851.     
  995.708        83761.6      -0.353702E+011   3623.59       0.155985E+007   891274.     
  1027.33        83761.6      -0.352024E+011   3620.11       0.155423E+007   886681.     
  1058.95        83761.6      -0.350341E+011   3616.61       0.154859E+007   882074.     
  1090.58        83761.6      -0.348655E+011   3613.10       0.154294E+007   877453.     
  1122.20        83761.6      -0.346966E+011   3609.57       0.153728E+007   872818.     
  1153.82        83761.6      -0.345274E+011   3606.02       0.153161E+007   868171.     
  1185.45        83761.6      -0.343580E+011   3602.45       0.152593E+007   863512.     
  1217.07        83761.6      -0.341175E+011   3592.17       0.151379E+007   853097.     
  1248.69        83761.6      -0.339480E+011   3588.58       0.150814E+007   848450.     
  1280.32        83761.6      -0.337783E+011   3584.99       0.150248E+007   843793.     
  1311.94        83761.6      -0.336083E+011   3581.37       0.149681E+007   839125.     
  1343.56        83761.6      -0.334382E+011   3577.74       0.149113E+007   834447.     
  1375.18        83761.6      -0.332679E+011   3574.10       0.148545E+007   829760.     
  1406.81        83761.6      -0.330975E+011   3570.44       0.147976E+007   825063.     
  1438.43        83761.6      -0.329269E+011   3566.76       0.147406E+007   820356.     
  1470.05        83761.6      -0.327561E+011   3563.07       0.146836E+007   815641.     
  1501.68        83761.6      -0.325852E+011   3559.36       0.146265E+007   810916.     
  1533.30        83761.6      -0.319248E+011   3511.03       0.135006E+007   673639.     
  300.000        95727.4      -0.387386E+011   3794.96       0.190345E+007  0.108926E+007
  331.623        95727.4      -0.386047E+011   3791.74       0.189685E+007  0.108443E+007
  363.246        95727.4      -0.384558E+011   3787.70       0.188854E+007  0.107860E+007
  394.869        95727.4      -0.382918E+011   3782.73       0.187833E+007  0.107170E+007
  426.492        95727.4      -0.381132E+011   3776.81       0.186618E+007  0.106372E+007
  458.115        95727.4      -0.379184E+011   3769.70       0.185167E+007  0.105446E+007
  489.738        95727.4      -0.377088E+011   3761.49       0.183500E+007  0.104404E+007
  521.362        95727.4      -0.374839E+011   3752.07       0.181600E+007  0.103240E+007
  552.985        95727.4      -0.372432E+011   3741.37       0.179458E+007  0.101951E+007
  584.608        95727.4      -0.369865E+011   3729.33       0.177065E+007  0.100535E+007
  616.231        95727.4      -0.367131E+011   3715.86       0.174413E+007   989903.     
  647.854        95727.4      -0.364223E+011   3700.86       0.171491E+007   973132.     
  679.477        95727.4      -0.361153E+011   3684.42       0.168321E+007   955185.     
  711.100        95727.4      -0.359553E+011   3681.28       0.167787E+007   950853.     
  742.723        95727.4      -0.357943E+011   3678.10       0.167249E+007   946489.     
  774.346        95727.4      -0.356324E+011   3674.89       0.166709E+007   942097.     
  805.969        95727.4      -0.354696E+011   3671.67       0.166165E+007   937679.     
  837.592        95727.4      -0.353062E+011   3668.41       0.165619E+007   933236.     
  869.215        95727.4      -0.351421E+011   3665.14       0.165071E+007   928772.     
  900.838        95727.4      -0.349773E+011   3661.84       0.164521E+007   924288.     
  932.462        95727.4      -0.348121E+011   3658.53       0.163969E+007   919785.     
  964.085        95727.4      -0.346464E+011   3655.19       0.163415E+007   915265.     
  995.708        95727.4      -0.344803E+011   3651.84       0.162859E+007   910729.     
  1027.33        95727.4      -0.343137E+011   3648.46       0.162302E+007   906177.     
  1058.95        95727.4      -0.341468E+011   3645.08       0.161744E+007   901611.     
  1090.58        95727.4      -0.339796E+011   3641.67       0.161184E+007   897032.     
  1122.20        95727.4      -0.338120E+011   3638.25       0.160624E+007   892439.     
  1153.82        95727.4      -0.336442E+011   3634.81       0.160062E+007   887835.     
  1185.45        95727.4      -0.334761E+011   3631.35       0.159500E+007   883218.     
  1217.07        95727.4      -0.333078E+011   3627.88       0.158936E+007   878591.     
  1248.69        95727.4      -0.331393E+011   3624.40       0.158372E+007   873952.     
  1280.32        95727.4      -0.329705E+011   3620.90       0.157806E+007   869303.     
  1311.94        95727.4      -0.328016E+011   3617.38       0.157241E+007   864644.     
  1343.56        95727.4      -0.326324E+011   3613.86       0.156674E+007   859976.     
  1375.18        95727.4      -0.324631E+011   3610.31       0.156107E+007   855297.     
  1406.81        95727.4      -0.322937E+011   3606.75       0.155539E+007   850609.     
  1438.43        95727.4      -0.321241E+011   3603.18       0.154970E+007   845913.     
  1470.05        95727.4      -0.319543E+011   3599.59       0.154401E+007   841207.     
  1501.68        95727.4      -0.317845E+011   3595.99       0.153831E+007   836493.     
  1533.30        95727.4      -0.316145E+011   3592.38       0.153261E+007   831770.     
  300.000        107693.      -0.379249E+011   3832.69       0.199409E+007  0.112270E+007
  331.623        107693.      -0.378267E+011   3832.87       0.199399E+007  0.112171E+007
  363.246        107693.      -0.377119E+011   3832.01       0.199187E+007  0.111944E+007
  394.869        107693.      -0.375805E+011   3830.01       0.198756E+007  0.111580E+007
  426.492        107693.      -0.374338E+011   3826.91       0.198112E+007  0.111086E+007
  458.115        107693.      -0.372731E+011   3822.78       0.197269E+007  0.110472E+007
  489.738        107693.      -0.370996E+011   3817.70       0.196240E+007  0.109750E+007
  521.362        107693.      -0.369143E+011   3811.72       0.195037E+007  0.108927E+007
  552.985        107693.      -0.367178E+011   3804.88       0.193665E+007  0.108012E+007
  584.608        107693.      -0.365108E+011   3797.18       0.192131E+007  0.107007E+007
  616.231        107693.      -0.362933E+011   3788.63       0.190436E+007  0.105918E+007
  647.854        107693.      -0.360657E+011   3779.23       0.188581E+007  0.104746E+007
  679.477        107693.      -0.358278E+011   3768.96       0.186565E+007  0.103493E+007
  711.100        107693.      -0.355796E+011   3757.78       0.184385E+007  0.102159E+007
  742.723        107693.      -0.353209E+011   3745.67       0.182039E+007  0.100745E+007
  774.346        107693.      -0.350512E+011   3732.58       0.179521E+007   992497.     
  805.969        107693.      -0.347703E+011   3718.45       0.176823E+007   976717.     
  837.592        107693.      -0.344773E+011   3703.22       0.173940E+007   960088.     
  869.215        107693.      -0.342278E+011   3692.00       0.171854E+007   947690.     
  900.838        107693.      -0.340643E+011   3688.80       0.171308E+007   943242.     
  932.462        107693.      -0.339002E+011   3685.58       0.170761E+007   938777.     
  964.085        107693.      -0.337357E+011   3682.34       0.170212E+007   934294.     
  995.708        107693.      -0.335707E+011   3679.09       0.169661E+007   929795.     
  1027.33        107693.      -0.334054E+011   3675.81       0.169109E+007   925281.     
  1058.95        107693.      -0.332397E+011   3672.53       0.168556E+007   920753.     
  1090.58        107693.      -0.330737E+011   3669.22       0.168001E+007   916212.     
  1122.20        107693.      -0.329074E+011   3665.90       0.167446E+007   911658.     
  1153.82        107693.      -0.327408E+011   3662.56       0.166889E+007   907093.     
  1185.45        107693.      -0.325739E+011   3659.21       0.166331E+007   902515.     
  1217.07        107693.      -0.324068E+011   3655.85       0.165773E+007   897927.     
  1248.69        107693.      -0.322395E+011   3652.47       0.165213E+007   893328.     
  1280.32        107693.      -0.320720E+011   3649.07       0.164653E+007   888719.     
  1311.94        107693.      -0.319044E+011   3645.66       0.164092E+007   884101.     
  1343.56        107693.      -0.317365E+011   3642.24       0.163530E+007   879473.     
  1375.18        107693.      -0.315685E+011   3638.81       0.162968E+007   874835.     
  1406.81        107693.      -0.314003E+011   3635.36       0.162405E+007   870189.     
  1438.43        107693.      -0.312320E+011   3631.90       0.161842E+007   865534.     
  1470.05        107693.      -0.310636E+011   3628.42       0.161278E+007   860870.     
  1501.68        107693.      -0.308950E+011   3624.93       0.160714E+007   856199.     
  1533.30        107693.      -0.307264E+011   3621.43       0.160149E+007   851518.     
  300.000        119659.      -0.399412E+011   4156.46       0.268062E+007  0.154352E+007
  331.623        119659.      -0.398248E+011   4154.79       0.267620E+007  0.153942E+007
  363.246        119659.      -0.397001E+011   4153.00       0.267146E+007  0.153502E+007
  394.869        119659.      -0.395685E+011   4151.11       0.266645E+007  0.153038E+007
  426.492        119659.      -0.394312E+011   4149.14       0.266122E+007  0.152554E+007
  458.115        119659.      -0.392890E+011   4147.09       0.265579E+007  0.152052E+007
  489.738        119659.      -0.391426E+011   4144.97       0.265020E+007  0.151536E+007
  521.362        119659.      -0.389928E+011   4142.80       0.264447E+007  0.151007E+007
  552.985        119659.      -0.388399E+011   4140.58       0.263861E+007  0.150467E+007
  584.608        119659.      -0.384523E+011   4114.73       0.257798E+007  0.146401E+007
  616.231        119659.      -0.372502E+011   4006.01       0.234177E+007  0.131095E+007
  647.854        119659.      -0.365343E+011   3946.64       0.222181E+007  0.123310E+007
  679.477        119659.      -0.360254E+011   3908.36       0.214698E+007  0.118448E+007
  711.100        119659.      -0.356191E+011   3880.62       0.209362E+007  0.114983E+007
  742.723        119659.      -0.352682E+011   3858.60       0.205161E+007  0.112263E+007
  774.346        119659.      -0.349483E+011   3839.84       0.201597E+007  0.109968E+007
  805.969        119659.      -0.346460E+011   3822.96       0.198398E+007  0.107926E+007
  837.592        119659.      -0.343534E+011   3807.15       0.195408E+007  0.106035E+007
  869.215        119659.      -0.340652E+011   3791.88       0.192526E+007  0.104234E+007
  900.838        119659.      -0.337782E+011   3776.78       0.189687E+007  0.102483E+007
  932.462        119659.      -0.334898E+011   3761.61       0.186846E+007  0.100755E+007
  964.085        119659.      -0.331983E+011   3746.18       0.183970E+007   990291.     
  995.708        119659.      -0.329023E+011   3730.33       0.181033E+007   972926.     
  1027.33        119659.      -0.326004E+011   3713.92       0.178013E+007   955333.     
  1058.95        119659.      -0.323144E+011   3699.05       0.175301E+007   939533.     
  1090.58        119659.      -0.321495E+011   3695.84       0.174750E+007   935027.     
  1122.20        119659.      -0.319842E+011   3692.61       0.174199E+007   930508.     
  1153.82        119659.      -0.318188E+011   3689.37       0.173647E+007   925978.     
  1185.45        119659.      -0.316530E+011   3686.11       0.173094E+007   921437.     
  1217.07        119659.      -0.314871E+011   3682.84       0.172540E+007   916885.     
  1248.69        119659.      -0.313209E+011   3679.56       0.171985E+007   912323.     
  1280.32        119659.      -0.311545E+011   3676.26       0.171429E+007   907751.     
  1311.94        119659.      -0.309880E+011   3672.95       0.170873E+007   903169.     
  1343.56        119659.      -0.308213E+011   3669.63       0.170316E+007   898578.     
  1375.18        119659.      -0.306544E+011   3666.29       0.169759E+007   893978.     
  1406.81        119659.      -0.304874E+011   3662.95       0.169200E+007   889370.     
  1438.43        119659.      -0.303202E+011   3659.59       0.168642E+007   884753.     
  1470.05        119659.      -0.301530E+011   3656.21       0.168082E+007   880128.     
  1501.68        119659.      -0.299856E+011   3652.83       0.167523E+007   875495.     
  1533.30        119659.      -0.298181E+011   3649.43       0.166962E+007   870854.     
  300.000        131625.      -0.389268E+011   4175.25       0.272844E+007  0.155956E+007
  331.623        131625.      -0.388112E+011   4173.62       0.272408E+007  0.155548E+007
  363.246        131625.      -0.386873E+011   4171.87       0.271940E+007  0.155112E+007
  394.869        131625.      -0.385564E+011   4170.03       0.271446E+007  0.154650E+007
  426.492        131625.      -0.384198E+011   4168.09       0.270930E+007  0.154169E+007
  458.115        131625.      -0.382783E+011   4166.08       0.270394E+007  0.153670E+007
  489.738        131625.      -0.381326E+011   4164.01       0.269842E+007  0.153157E+007
  521.362        131625.      -0.379835E+011   4161.89       0.269276E+007  0.152631E+007
  552.985        131625.      -0.378313E+011   4159.72       0.268698E+007  0.152094E+007
  584.608        131625.      -0.376765E+011   4157.50       0.268108E+007  0.151547E+007
  616.231        131625.      -0.375194E+011   4155.24       0.267509E+007  0.150993E+007
  647.854        131625.      -0.373604E+011   4152.95       0.266901E+007  0.150431E+007
  679.477        131625.      -0.371996E+011   4150.63       0.266285E+007  0.149863E+007
  711.100        131625.      -0.370373E+011   4148.28       0.265662E+007  0.149289E+007
  742.723        131625.      -0.368737E+011   4145.90       0.265033E+007  0.148710E+007
  774.346        131625.      -0.367089E+011   4143.50       0.264397E+007  0.148127E+007
  805.969        131625.      -0.365430E+011   4141.08       0.263756E+007  0.147540E+007
  837.592        131625.      -0.363761E+011   4138.63       0.263110E+007  0.146949E+007
  869.215        131625.      -0.362084E+011   4136.16       0.262459E+007  0.146354E+007
  900.838        131625.      -0.358458E+011   4113.43       0.257292E+007  0.142821E+007
  932.462        131625.      -0.347541E+011   4014.42       0.236361E+007  0.129149E+007
  964.085        131625.      -0.340107E+011   3951.55       0.223919E+007  0.121075E+007
  995.708        131625.      -0.334411E+011   3906.76       0.215358E+007  0.115555E+007
  1027.33        131625.      -0.329687E+011   3872.09       0.208864E+007  0.111401E+007
  1058.95        131625.      -0.325543E+011   3843.48       0.203574E+007  0.108048E+007
  1090.58        131625.      -0.321761E+011   3818.66       0.199024E+007  0.105196E+007
  1122.20        131625.      -0.318208E+011   3796.26       0.194941E+007  0.102669E+007
  1153.82        131625.      -0.314799E+011   3775.38       0.191158E+007  0.100359E+007
  1185.45        131625.      -0.311477E+011   3755.42       0.187561E+007   981951.     
  1217.07        131625.      -0.308200E+011   3735.96       0.184072E+007   961278.     
  1248.69        131625.      -0.304939E+011   3716.67       0.180636E+007   941234.     
  1280.32        131625.      -0.302194E+011   3702.55       0.178141E+007   926428.     
  1311.94        131625.      -0.300539E+011   3699.33       0.177589E+007   921881.     
  1343.56        131625.      -0.298882E+011   3696.10       0.177036E+007   917324.     
  1375.18        131625.      -0.297224E+011   3692.86       0.176483E+007   912759.     
  1406.81        131625.      -0.295564E+011   3689.60       0.175929E+007   908185.     
  1438.43        131625.      -0.293903E+011   3686.34       0.175375E+007   903604.     
  1470.05        131625.      -0.292241E+011   3683.06       0.174820E+007   899014.     
  1501.68        131625.      -0.290578E+011   3679.77       0.174264E+007   894417.     
  1533.30        131625.      -0.288914E+011   3676.47       0.173708E+007   889812.     
  300.000        143591.      -0.379046E+011   4193.79       0.277604E+007  0.157541E+007
  331.623        143591.      -0.377897E+011   4192.20       0.277174E+007  0.157136E+007
  363.246        143591.      -0.376665E+011   4190.49       0.276713E+007  0.156702E+007
  394.869        143591.      -0.375363E+011   4188.68       0.276226E+007  0.156243E+007
  426.492        143591.      -0.374004E+011   4186.78       0.275716E+007  0.155765E+007
  458.115        143591.      -0.372595E+011   4184.82       0.275187E+007  0.155269E+007
  489.738        143591.      -0.371146E+011   4182.79       0.274642E+007  0.154758E+007
  521.362        143591.      -0.369660E+011   4180.71       0.274083E+007  0.154234E+007
  552.985        143591.      -0.368145E+011   4178.58       0.273511E+007  0.153700E+007
  584.608        143591.      -0.366603E+011   4176.41       0.272929E+007  0.153156E+007
  616.231        143591.      -0.365039E+011   4174.20       0.272337E+007  0.152604E+007
  647.854        143591.      -0.363455E+011   4171.96       0.271736E+007  0.152045E+007
  679.477        143591.      -0.361854E+011   4169.68       0.271128E+007  0.151480E+007
  711.100        143591.      -0.360237E+011   4167.38       0.270512E+007  0.150909E+007
  742.723        143591.      -0.358607E+011   4165.05       0.269890E+007  0.150333E+007
  774.346        143591.      -0.356965E+011   4162.70       0.269263E+007  0.149752E+007
  805.969        143591.      -0.355312E+011   4160.32       0.268629E+007  0.149167E+007
  837.592        143591.      -0.353650E+011   4157.92       0.267991E+007  0.148579E+007
  869.215        143591.      -0.351979E+011   4155.51       0.267348E+007  0.147987E+007
  900.838        143591.      -0.350300E+011   4153.07       0.266701E+007  0.147392E+007
  932.462        143591.      -0.348615E+011   4150.62       0.266049E+007  0.146794E+007
  964.085        143591.      -0.346922E+011   4148.14       0.265393E+007  0.146194E+007
  995.708        143591.      -0.345224E+011   4145.66       0.264733E+007  0.145591E+007
  1027.33        143591.      -0.343521E+011   4143.15       0.264070E+007  0.144986E+007
  1058.95        143591.      -0.341813E+011   4140.63       0.263403E+007  0.144379E+007
  1090.58        143591.      -0.340100E+011   4138.10       0.262733E+007  0.143770E+007
  1122.20        143591.      -0.338384E+011   4135.54       0.262060E+007  0.143159E+007
  1153.82        143591.      -0.336663E+011   4132.98       0.261383E+007  0.142547E+007
  1185.45        143591.      -0.334939E+011   4130.40       0.260703E+007  0.141932E+007
  1217.07        143591.      -0.324356E+011   4032.50       0.240373E+007  0.128504E+007
  1248.69        143591.      -0.316200E+011   3960.39       0.226394E+007  0.119405E+007
  1280.32        143591.      -0.309872E+011   3907.80       0.216602E+007  0.113108E+007
  1311.94        143591.      -0.304607E+011   3866.55       0.209109E+007  0.108349E+007
  1343.56        143591.      -0.300000E+011   3832.34       0.202994E+007  0.104517E+007
  1375.18        143591.      -0.295791E+011   3802.40       0.197702E+007  0.101251E+007
  1406.81        143591.      -0.291921E+011   3776.07       0.193086E+007   984438.     
  1438.43        143591.      -0.288210E+011   3751.44       0.188801E+007   958815.     
  1470.05        143591.      -0.284622E+011   3728.12       0.184771E+007   935122.     
  1501.68        143591.      -0.281130E+011   3705.83       0.180943E+007   912994.     
  1533.30        143591.      -0.279476E+011   3702.62       0.180391E+007   908422.     
  300.000        155556.      -0.368749E+011   4212.08       0.282344E+007  0.159107E+007
  331.623        155556.      -0.367606E+011   4210.52       0.281920E+007  0.158705E+007
  363.246        155556.      -0.366381E+011   4208.85       0.281465E+007  0.158273E+007
  394.869        155556.      -0.365086E+011   4207.07       0.280983E+007  0.157818E+007
  426.492        155556.      -0.363733E+011   4205.22       0.280480E+007  0.157341E+007
  458.115        155556.      -0.362330E+011   4203.30       0.279958E+007  0.156848E+007
  489.738        155556.      -0.360887E+011   4201.31       0.279419E+007  0.156339E+007
  521.362        155556.      -0.359408E+011   4199.27       0.278866E+007  0.155818E+007
  552.985        155556.      -0.357898E+011   4197.18       0.278302E+007  0.155287E+007
  584.608        155556.      -0.356362E+011   4195.05       0.277726E+007  0.154745E+007
  616.231        155556.      -0.354804E+011   4192.89       0.277141E+007  0.154196E+007
  647.854        155556.      -0.353226E+011   4190.69       0.276547E+007  0.153639E+007
  679.477        155556.      -0.351630E+011   4188.46       0.275946E+007  0.153076E+007
  711.100        155556.      -0.350020E+011   4186.20       0.275338E+007  0.152508E+007
  742.723        155556.      -0.348395E+011   4183.92       0.274723E+007  0.151934E+007
  774.346        155556.      -0.346759E+011   4181.61       0.274103E+007  0.151356E+007
  805.969        155556.      -0.345112E+011   4179.29       0.273477E+007  0.150774E+007
  837.592        155556.      -0.343456E+011   4176.94       0.272846E+007  0.150188E+007
  869.215        155556.      -0.341791E+011   4174.57       0.272211E+007  0.149598E+007
  900.838        155556.      -0.340118E+011   4172.18       0.271571E+007  0.149006E+007
  932.462        155556.      -0.338438E+011   4169.78       0.270927E+007  0.148411E+007
  964.085        155556.      -0.336752E+011   4167.36       0.270279E+007  0.147813E+007
  995.708        155556.      -0.335060E+011   4164.92       0.269627E+007  0.147213E+007
  1027.33        155556.      -0.333362E+011   4162.46       0.268972E+007  0.146611E+007
  1058.95        155556.      -0.331660E+011   4160.00       0.268313E+007  0.146007E+007
  1090.58        155556.      -0.329953E+011   4157.51       0.267651E+007  0.145400E+007
  1122.20        155556.      -0.328243E+011   4155.02       0.266986E+007  0.144792E+007
  1153.82        155556.      -0.326528E+011   4152.50       0.266318E+007  0.144182E+007
  1185.45        155556.      -0.324810E+011   4149.98       0.265646E+007  0.143571E+007
  1217.07        155556.      -0.323089E+011   4147.44       0.264972E+007  0.142958E+007
  1248.69        155556.      -0.321365E+011   4144.89       0.264294E+007  0.142343E+007
  1280.32        155556.      -0.319637E+011   4142.32       0.263614E+007  0.141727E+007
  1311.94        155556.      -0.317908E+011   4139.74       0.262931E+007  0.141110E+007
  1343.56        155556.      -0.316175E+011   4137.15       0.262245E+007  0.140491E+007
  1375.18        155556.      -0.314441E+011   4134.55       0.261557E+007  0.139871E+007
  1406.81        155556.      -0.312704E+011   4131.93       0.260866E+007  0.139250E+007
  1438.43        155556.      -0.310965E+011   4129.30       0.260172E+007  0.138628E+007
  1470.05        155556.      -0.308869E+011   4122.90       0.258604E+007  0.137359E+007
  1501.68        155556.      -0.298385E+011   4022.93       0.238836E+007  0.124276E+007
  1533.30        155556.      -0.290296E+011   3949.41       0.225151E+007  0.115360E+007
  300.000        167522.      -0.358378E+011   4230.13       0.287065E+007  0.160655E+007
  331.623        167522.      -0.357241E+011   4228.61       0.286646E+007  0.160255E+007
  363.246        167522.      -0.356022E+011   4226.97       0.286196E+007  0.159827E+007
  394.869        167522.      -0.354733E+011   4225.23       0.285721E+007  0.159373E+007
  426.492        167522.      -0.353386E+011   4223.41       0.285223E+007  0.158899E+007
  458.115        167522.      -0.351990E+011   4221.53       0.284707E+007  0.158408E+007
  489.738        167522.      -0.350552E+011   4219.58       0.284175E+007  0.157902E+007
  521.362        167522.      -0.349079E+011   4217.58       0.283628E+007  0.157384E+007
  552.985        167522.      -0.347575E+011   4215.53       0.283070E+007  0.156854E+007
  584.608        167522.      -0.346045E+011   4213.45       0.282501E+007  0.156315E+007
  616.231        167522.      -0.344492E+011   4211.32       0.281922E+007  0.155768E+007
  647.854        167522.      -0.342919E+011   4209.17       0.281335E+007  0.155214E+007
  679.477        167522.      -0.341329E+011   4206.98       0.280741E+007  0.154653E+007
  711.100        167522.      -0.339724E+011   4204.77       0.280139E+007  0.154087E+007
  742.723        167522.      -0.338105E+011   4202.53       0.279532E+007  0.153516E+007
  774.346        167522.      -0.336474E+011   4200.27       0.278918E+007  0.152940E+007
  805.969        167522.      -0.334833E+011   4197.98       0.278300E+007  0.152360E+007
  837.592        167522.      -0.333182E+011   4195.68       0.277676E+007  0.151776E+007
  869.215        167522.      -0.331522E+011   4193.36       0.277048E+007  0.151189E+007
  900.838        167522.      -0.329854E+011   4191.02       0.276415E+007  0.150599E+007
  932.462        167522.      -0.328180E+011   4188.66       0.275779E+007  0.150007E+007
  964.085        167522.      -0.326499E+011   4186.29       0.275138E+007  0.149411E+007
  995.708        167522.      -0.324813E+011   4183.90       0.274494E+007  0.148814E+007
  1027.33        167522.      -0.323121E+011   4181.49       0.273847E+007  0.148214E+007
  1058.95        167522.      -0.321424E+011   4179.07       0.273196E+007  0.147612E+007
  1090.58        167522.      -0.319723E+011   4176.64       0.272541E+007  0.147008E+007
  1122.20        167522.      -0.318018E+011   4174.19       0.271884E+007  0.146403E+007
  1153.82        167522.      -0.316309E+011   4171.73       0.271224E+007  0.145795E+007
  1185.45        167522.      -0.314597E+011   4169.26       0.270560E+007  0.145186E+007
  1217.07        167522.      -0.312881E+011   4166.77       0.269894E+007  0.144576E+007
  1248.69        167522.      -0.311163E+011   4164.27       0.269225E+007  0.143964E+007
  1280.32        167522.      -0.309441E+011   4161.76       0.268553E+007  0.143351E+007
  1311.94        167522.      -0.307717E+011   4159.24       0.267879E+007  0.142736E+007
  1343.56        167522.      -0.305991E+011   4156.70       0.267202E+007  0.142120E+007
  1375.18        167522.      -0.304262E+011   4154.15       0.266522E+007  0.141503E+007
  1406.81        167522.      -0.302532E+011   4151.59       0.265839E+007  0.140885E+007
  1438.43        167522.      -0.300799E+011   4149.01       0.265154E+007  0.140266E+007
  1470.05        167522.      -0.299064E+011   4146.43       0.264467E+007  0.139645E+007
  1501.68        167522.      -0.297328E+011   4143.83       0.263777E+007  0.139024E+007
  1533.30        167522.      -0.295590E+011   4141.22       0.263083E+007  0.138401E+007
  300.000        179488.      -0.347936E+011   4247.96       0.291766E+007  0.162186E+007
  331.623        179488.      -0.346806E+011   4246.46       0.291352E+007  0.161789E+007
  363.246        179488.      -0.345592E+011   4244.85       0.290908E+007  0.161362E+007
  394.869        179488.      -0.344309E+011   4243.15       0.290438E+007  0.160911E+007
  426.492        179488.      -0.342968E+011   4241.37       0.289947E+007  0.160440E+007
  458.115        179488.      -0.341577E+011   4239.52       0.289436E+007  0.159951E+007
  489.738        179488.      -0.340145E+011   4237.61       0.288910E+007  0.159447E+007
  521.362        179488.      -0.338677E+011   4235.65       0.288370E+007  0.158931E+007
  552.985        179488.      -0.337178E+011   4233.64       0.287818E+007  0.158403E+007
  584.608        179488.      -0.335653E+011   4231.59       0.287255E+007  0.157867E+007
  616.231        179488.      -0.334106E+011   4229.51       0.286682E+007  0.157322E+007
  647.854        179488.      -0.332538E+011   4227.39       0.286102E+007  0.156770E+007
  679.477        179488.      -0.330953E+011   4225.25       0.285514E+007  0.156211E+007
  711.100        179488.      -0.329353E+011   4223.08       0.284919E+007  0.155647E+007
  742.723        179488.      -0.327739E+011   4220.88       0.284318E+007  0.155078E+007
  774.346        179488.      -0.326113E+011   4218.66       0.283711E+007  0.154504E+007
  805.969        179488.      -0.324476E+011   4216.42       0.283099E+007  0.153926E+007
  837.592        179488.      -0.322830E+011   4214.16       0.282482E+007  0.153345E+007
  869.215        179488.      -0.321176E+011   4211.89       0.281861E+007  0.152760E+007
  900.838        179488.      -0.319513E+011   4209.59       0.281235E+007  0.152173E+007
  932.462        179488.      -0.317844E+011   4207.28       0.280606E+007  0.151582E+007
  964.085        179488.      -0.316168E+011   4204.95       0.279973E+007  0.150989E+007
  995.708        179488.      -0.314486E+011   4202.61       0.279336E+007  0.150394E+007
  1027.33        179488.      -0.312800E+011   4200.25       0.278695E+007  0.149796E+007
  1058.95        179488.      -0.311108E+011   4197.88       0.278052E+007  0.149197E+007
  1090.58        179488.      -0.309412E+011   4195.49       0.277405E+007  0.148595E+007
  1122.20        179488.      -0.307712E+011   4193.09       0.276755E+007  0.147992E+007
  1153.82        179488.      -0.306008E+011   4190.68       0.276102E+007  0.147387E+007
  1185.45        179488.      -0.304301E+011   4188.26       0.275447E+007  0.146780E+007
  1217.07        179488.      -0.302591E+011   4185.82       0.274788E+007  0.146173E+007
  1248.69        179488.      -0.300878E+011   4183.37       0.274127E+007  0.145563E+007
  1280.32        179488.      -0.299162E+011   4180.91       0.273464E+007  0.144952E+007
  1311.94        179488.      -0.297443E+011   4178.43       0.272797E+007  0.144340E+007
  1343.56        179488.      -0.295722E+011   4175.95       0.272128E+007  0.143727E+007
  1375.18        179488.      -0.293999E+011   4173.45       0.271457E+007  0.143113E+007
  1406.81        179488.      -0.292274E+011   4170.94       0.270783E+007  0.142497E+007
  1438.43        179488.      -0.290547E+011   4168.42       0.270106E+007  0.141881E+007
  1470.05        179488.      -0.288818E+011   4165.89       0.269427E+007  0.141263E+007
  1501.68        179488.      -0.287088E+011   4163.34       0.268746E+007  0.140644E+007
  1533.30        179488.      -0.285355E+011   4160.79       0.268062E+007  0.140024E+007
  300.000        191454.      -0.337425E+011   4265.56       0.296449E+007  0.163700E+007
  331.623        191454.      -0.336300E+011   4264.09       0.296040E+007  0.163305E+007
  363.246        191454.      -0.335093E+011   4262.52       0.295601E+007  0.162881E+007
  394.869        191454.      -0.333816E+011   4260.85       0.295137E+007  0.162432E+007
  426.492        191454.      -0.332480E+011   4259.10       0.294651E+007  0.161963E+007
  458.115        191454.      -0.331094E+011   4257.29       0.294146E+007  0.161476E+007
  489.738        191454.      -0.329667E+011   4255.41       0.293625E+007  0.160974E+007
  521.362        191454.      -0.328204E+011   4253.49       0.293091E+007  0.160460E+007
  552.985        191454.      -0.326710E+011   4251.52       0.292545E+007  0.159935E+007
  584.608        191454.      -0.325190E+011   4249.51       0.291988E+007  0.159400E+007
  616.231        191454.      -0.323647E+011   4247.46       0.291422E+007  0.158857E+007
  647.854        191454.      -0.322085E+011   4245.38       0.290847E+007  0.158307E+007
  679.477        191454.      -0.320504E+011   4243.28       0.290265E+007  0.157751E+007
  711.100        191454.      -0.318909E+011   4241.15       0.289677E+007  0.157188E+007
  742.723        191454.      -0.317299E+011   4238.99       0.289082E+007  0.156621E+007
  774.346        191454.      -0.315678E+011   4236.81       0.288481E+007  0.156050E+007
  805.969        191454.      -0.314046E+011   4234.62       0.287876E+007  0.155474E+007
  837.592        191454.      -0.312405E+011   4232.40       0.287266E+007  0.154895E+007
  869.215        191454.      -0.310754E+011   4230.16       0.286651E+007  0.154312E+007
  900.838        191454.      -0.309097E+011   4227.91       0.286032E+007  0.153726E+007
  932.462        191454.      -0.307432E+011   4225.64       0.285409E+007  0.153138E+007
  964.085        191454.      -0.305761E+011   4223.36       0.284783E+007  0.152547E+007
  995.708        191454.      -0.304084E+011   4221.06       0.284153E+007  0.151954E+007
  1027.33        191454.      -0.302402E+011   4218.74       0.283519E+007  0.151358E+007
  1058.95        191454.      -0.300715E+011   4216.42       0.282883E+007  0.150761E+007
  1090.58        191454.      -0.299023E+011   4214.08       0.282243E+007  0.150162E+007
  1122.20        191454.      -0.297328E+011   4211.72       0.281601E+007  0.149561E+007
  1153.82        191454.      -0.295629E+011   4209.36       0.280955E+007  0.148958E+007
  1185.45        191454.      -0.293927E+011   4206.98       0.280307E+007  0.148354E+007
  1217.07        191454.      -0.292222E+011   4204.59       0.279656E+007  0.147748E+007
  1248.69        191454.      -0.290513E+011   4202.19       0.279002E+007  0.147141E+007
  1280.32        191454.      -0.288802E+011   4199.77       0.278346E+007  0.146533E+007
  1311.94        191454.      -0.287089E+011   4197.35       0.277687E+007  0.145923E+007
  1343.56        191454.      -0.285373E+011   4194.91       0.277026E+007  0.145312E+007
  1375.18        191454.      -0.283655E+011   4192.46       0.276362E+007  0.144700E+007
  1406.81        191454.      -0.281935E+011   4190.00       0.275697E+007  0.144087E+007
  1438.43        191454.      -0.280213E+011   4187.53       0.275028E+007  0.143473E+007
  1470.05        191454.      -0.278489E+011   4185.05       0.274357E+007  0.142858E+007
  1501.68        191454.      -0.276764E+011   4182.56       0.273684E+007  0.142242E+007
  1533.30        191454.      -0.275037E+011   4180.06       0.273008E+007  0.141625E+007
  300.000        203420.      -0.331260E+011   4336.90       0.312679E+007  0.166939E+007
  331.623        203420.      -0.327798E+011   4306.40       0.301996E+007  0.166267E+007
  363.246        203420.      -0.325929E+011   4296.90       0.301147E+007  0.165377E+007
  394.869        203420.      -0.323907E+011   4286.25       0.300222E+007  0.164401E+007
  426.492        203420.      -0.321923E+011   4276.61       0.299336E+007  0.163469E+007
  458.115        203420.      -0.320543E+011   4274.83       0.298837E+007  0.162984E+007
  489.738        203420.      -0.319120E+011   4272.99       0.298322E+007  0.162484E+007
  521.362        203420.      -0.317662E+011   4271.10       0.297793E+007  0.161972E+007
  552.985        203420.      -0.316173E+011   4269.17       0.297252E+007  0.161449E+007
  584.608        203420.      -0.314658E+011   4267.19       0.296701E+007  0.160916E+007
  616.231        203420.      -0.313119E+011   4265.18       0.296141E+007  0.160375E+007
  647.854        203420.      -0.311561E+011   4263.14       0.295572E+007  0.159827E+007
  679.477        203420.      -0.309985E+011   4261.08       0.294996E+007  0.159272E+007
  711.100        203420.      -0.308394E+011   4258.98       0.294413E+007  0.158712E+007
  742.723        203420.      -0.306789E+011   4256.87       0.293825E+007  0.158147E+007
  774.346        203420.      -0.305172E+011   4254.73       0.293231E+007  0.157577E+007
  805.969        203420.      -0.303544E+011   4252.57       0.292631E+007  0.157003E+007
  837.592        203420.      -0.301907E+011   4250.39       0.292027E+007  0.156426E+007
  869.215        203420.      -0.300261E+011   4248.20       0.291419E+007  0.155845E+007
  900.838        203420.      -0.298607E+011   4245.98       0.290806E+007  0.155261E+007
  932.462        203420.      -0.296947E+011   4243.76       0.290190E+007  0.154675E+007
  964.085        203420.      -0.295280E+011   4241.51       0.289570E+007  0.154086E+007
  995.708        203420.      -0.293607E+011   4239.26       0.288946E+007  0.153495E+007
  1027.33        203420.      -0.291930E+011   4236.99       0.288320E+007  0.152901E+007
  1058.95        203420.      -0.290247E+011   4234.70       0.287690E+007  0.152306E+007
  1090.58        203420.      -0.288560E+011   4232.41       0.287057E+007  0.151709E+007
  1122.20        203420.      -0.286869E+011   4230.10       0.286421E+007  0.151110E+007
  1153.82        203420.      -0.285175E+011   4227.77       0.285783E+007  0.150509E+007
  1185.45        203420.      -0.283477E+011   4225.44       0.285142E+007  0.149907E+007
  1217.07        203420.      -0.281776E+011   4223.10       0.284498E+007  0.149303E+007
  1248.69        203420.      -0.280072E+011   4220.74       0.283851E+007  0.148698E+007
  1280.32        203420.      -0.278365E+011   4218.37       0.283202E+007  0.148092E+007
  1311.94        203420.      -0.276656E+011   4215.99       0.282551E+007  0.147485E+007
  1343.56        203420.      -0.274945E+011   4213.60       0.281897E+007  0.146876E+007
  1375.18        203420.      -0.273232E+011   4211.20       0.281241E+007  0.146267E+007
  1406.81        203420.      -0.271516E+011   4208.79       0.280582E+007  0.145656E+007
  1438.43        203420.      -0.269799E+011   4206.37       0.279921E+007  0.145044E+007
  1470.05        203420.      -0.268080E+011   4203.94       0.279258E+007  0.144431E+007
  1501.68        203420.      -0.266360E+011   4201.49       0.278593E+007  0.143817E+007
  1533.30        203420.      -0.264638E+011   4199.04       0.277925E+007  0.143203E+007
  300.000        215385.      -0.322022E+011   4372.52       0.326411E+007  0.166339E+007
  331.623        215385.      -0.320903E+011   4371.16       0.325894E+007  0.165918E+007
  363.246        215385.      -0.319697E+011   4369.68       0.325336E+007  0.165465E+007
  394.869        215385.      -0.318418E+011   4368.12       0.324743E+007  0.164984E+007
  426.492        215385.      -0.317078E+011   4366.48       0.324121E+007  0.164480E+007
  458.115        215385.      -0.315711E+011   4365.14       0.323532E+007  0.163844E+007
  489.738        215385.      -0.314304E+011   4363.81       0.322929E+007  0.163183E+007
  521.362        215385.      -0.312858E+011   4362.41       0.322304E+007  0.162522E+007
  552.985        215385.      -0.311380E+011   4360.97       0.321658E+007  0.161862E+007
  584.608        215385.      -0.304278E+011   4287.42       0.301538E+007  0.162591E+007
  616.231        215385.      -0.302524E+011   4282.69       0.300841E+007  0.161876E+007
  647.854        215385.      -0.300969E+011   4280.68       0.300278E+007  0.161329E+007
  679.477        215385.      -0.299398E+011   4278.65       0.299707E+007  0.160777E+007
  711.100        215385.      -0.297810E+011   4276.60       0.299130E+007  0.160218E+007
  742.723        215385.      -0.296209E+011   4274.52       0.298547E+007  0.159655E+007
  774.346        215385.      -0.294597E+011   4272.41       0.297959E+007  0.159087E+007
  805.969        215385.      -0.292973E+011   4270.29       0.297366E+007  0.158515E+007
  837.592        215385.      -0.291339E+011   4268.15       0.296768E+007  0.157939E+007
  869.215        215385.      -0.289698E+011   4266.00       0.296165E+007  0.157360E+007
  900.838        215385.      -0.288048E+011   4263.83       0.295559E+007  0.156778E+007
  932.462        215385.      -0.286391E+011   4261.64       0.294949E+007  0.156194E+007
  964.085        215385.      -0.284728E+011   4259.43       0.294335E+007  0.155606E+007
  995.708        215385.      -0.283060E+011   4257.22       0.293718E+007  0.155017E+007
  1027.33        215385.      -0.281386E+011   4254.99       0.293097E+007  0.154425E+007
  1058.95        215385.      -0.279707E+011   4252.74       0.292474E+007  0.153832E+007
  1090.58        215385.      -0.278024E+011   4250.49       0.291848E+007  0.153237E+007
  1122.20        215385.      -0.276337E+011   4248.22       0.291218E+007  0.152639E+007
  1153.82        215385.      -0.274647E+011   4245.94       0.290587E+007  0.152041E+007
  1185.45        215385.      -0.272953E+011   4243.65       0.289952E+007  0.151441E+007
  1217.07        215385.      -0.271256E+011   4241.35       0.289315E+007  0.150839E+007
  1248.69        215385.      -0.269556E+011   4239.04       0.288675E+007  0.150236E+007
  1280.32        215385.      -0.267854E+011   4236.71       0.288033E+007  0.149632E+007
  1311.94        215385.      -0.266149E+011   4234.38       0.287389E+007  0.149027E+007
  1343.56        215385.      -0.264442E+011   4232.03       0.286742E+007  0.148420E+007
  1375.18        215385.      -0.262733E+011   4229.68       0.286093E+007  0.147812E+007
  1406.81        215385.      -0.261022E+011   4227.31       0.285442E+007  0.147204E+007
  1438.43        215385.      -0.259309E+011   4224.93       0.284788E+007  0.146594E+007
  1470.05        215385.      -0.257594E+011   4222.55       0.284132E+007  0.145984E+007
  1501.68        215385.      -0.255878E+011   4220.15       0.283474E+007  0.145372E+007
  1533.30        215385.      -0.254160E+011   4217.75       0.282814E+007  0.144759E+007
  300.000        227351.      -0.323686E+011   4556.62       0.327217E+007  0.204761E+007
  331.623        227351.      -0.322502E+011   4554.85       0.326795E+007  0.204177E+007
  363.246        227351.      -0.321220E+011   4552.94       0.326339E+007  0.203530E+007
  394.869        227351.      -0.319852E+011   4550.93       0.325853E+007  0.202825E+007
  426.492        227351.      -0.318410E+011   4548.81       0.325342E+007  0.202068E+007
  458.115        227351.      -0.316903E+011   4546.61       0.324809E+007  0.201261E+007
  489.738        227351.      -0.315338E+011   4544.34       0.324256E+007  0.200411E+007
  521.362        227351.      -0.313723E+011   4542.01       0.323686E+007  0.199519E+007
  552.985        227351.      -0.312062E+011   4539.62       0.323101E+007  0.198591E+007
  584.608        227351.      -0.299286E+011   4378.21       0.327305E+007  0.162378E+007
  616.231        227351.      -0.297767E+011   4376.91       0.326611E+007  0.161798E+007
  647.854        227351.      -0.296234E+011   4375.70       0.325903E+007  0.161233E+007
  679.477        227351.      -0.294692E+011   4374.66       0.325180E+007  0.160699E+007
  711.100        227351.      -0.293154E+011   4373.93       0.324440E+007  0.160221E+007
  742.723        227351.      -0.291645E+011   4373.93       0.323672E+007  0.159881E+007
  774.346        227351.      -0.291745E+011   4399.40       0.322155E+007  0.164732E+007
  805.969        227351.      -0.290367E+011   4401.74       0.321345E+007  0.164884E+007
  837.592        227351.      -0.282068E+011   4305.63       0.302769E+007  0.161613E+007
  869.215        227351.      -0.279477E+011   4289.58       0.301268E+007  0.159480E+007
  900.838        227351.      -0.277420E+011   4281.44       0.300291E+007  0.158277E+007
  932.462        227351.      -0.275767E+011   4279.29       0.299686E+007  0.157694E+007
  964.085        227351.      -0.274108E+011   4277.13       0.299079E+007  0.157109E+007
  995.708        227351.      -0.272443E+011   4274.95       0.298468E+007  0.156521E+007
  1027.33        227351.      -0.270773E+011   4272.76       0.297853E+007  0.155931E+007
  1058.95        227351.      -0.269098E+011   4270.55       0.297236E+007  0.155340E+007
  1090.58        227351.      -0.267418E+011   4268.34       0.296616E+007  0.154746E+007
  1122.20        227351.      -0.265735E+011   4266.11       0.295993E+007  0.154151E+007
  1153.82        227351.      -0.264048E+011   4263.87       0.295367E+007  0.153554E+007
  1185.45        227351.      -0.262358E+011   4261.62       0.294739E+007  0.152956E+007
  1217.07        227351.      -0.260665E+011   4259.36       0.294109E+007  0.152356E+007
  1248.69        227351.      -0.258969E+011   4257.09       0.293475E+007  0.151755E+007
  1280.32        227351.      -0.257271E+011   4254.80       0.292840E+007  0.151152E+007
  1311.94        227351.      -0.255570E+011   4252.51       0.292202E+007  0.150549E+007
  1343.56        227351.      -0.253866E+011   4250.21       0.291562E+007  0.149944E+007
  1375.18        227351.      -0.252161E+011   4247.90       0.290920E+007  0.149339E+007
  1406.81        227351.      -0.250454E+011   4245.57       0.290276E+007  0.148732E+007
  1438.43        227351.      -0.248745E+011   4243.24       0.289629E+007  0.148124E+007
  1470.05        227351.      -0.247034E+011   4240.90       0.288980E+007  0.147516E+007
  1501.68        227351.      -0.245322E+011   4238.55       0.288329E+007  0.146906E+007
  1533.30        227351.      -0.243608E+011   4236.19       0.287676E+007  0.146296E+007
  300.000        239317.      -0.312953E+011   4573.70       0.331694E+007  0.206905E+007
  331.623        239317.      -0.311776E+011   4571.96       0.331276E+007  0.206325E+007
  363.246        239317.      -0.310500E+011   4570.09       0.330825E+007  0.205682E+007
  394.869        239317.      -0.309139E+011   4568.10       0.330344E+007  0.204981E+007
  426.492        239317.      -0.307702E+011   4566.02       0.329838E+007  0.204227E+007
  458.115        239317.      -0.306201E+011   4563.86       0.329310E+007  0.203425E+007
  489.738        239317.      -0.304642E+011   4561.62       0.328763E+007  0.202577E+007
  521.362        239317.      -0.303032E+011   4559.33       0.328198E+007  0.201690E+007
  552.985        239317.      -0.301377E+011   4556.97       0.327617E+007  0.200765E+007
  584.608        239317.      -0.299681E+011   4554.57       0.327023E+007  0.199806E+007
  616.231        239317.      -0.297948E+011   4552.13       0.326416E+007  0.198818E+007
  647.854        239317.      -0.296181E+011   4549.65       0.325798E+007  0.197803E+007
  679.477        239317.      -0.294405E+011   4547.13       0.325175E+007  0.196814E+007
  711.100        239317.      -0.292717E+011   4544.58       0.324571E+007  0.196074E+007
  742.723        239317.      -0.291012E+011   4542.00       0.323960E+007  0.195327E+007
  774.346        239317.      -0.289294E+011   4539.39       0.323343E+007  0.194573E+007
  805.969        239317.      -0.287563E+011   4536.76       0.322721E+007  0.193812E+007
  837.592        239317.      -0.285820E+011   4534.11       0.322093E+007  0.193046E+007
  869.215        239317.      -0.284068E+011   4531.43       0.321460E+007  0.192275E+007
  900.838        239317.      -0.282306E+011   4528.74       0.320822E+007  0.191500E+007
  932.462        239317.      -0.280536E+011   4526.02       0.320180E+007  0.190720E+007
  964.085        239317.      -0.278759E+011   4523.29       0.319534E+007  0.189936E+007
  995.708        239317.      -0.276974E+011   4520.53       0.318884E+007  0.189148E+007
  1027.33        239317.      -0.275184E+011   4517.77       0.318231E+007  0.188357E+007
  1058.95        239317.      -0.273388E+011   4514.98       0.317573E+007  0.187563E+007
  1090.58        239317.      -0.271586E+011   4512.18       0.316912E+007  0.186766E+007
  1122.20        239317.      -0.269780E+011   4509.36       0.316248E+007  0.185966E+007
  1153.82        239317.      -0.267970E+011   4506.53       0.315581E+007  0.185163E+007
  1185.45        239317.      -0.266155E+011   4503.69       0.314910E+007  0.184358E+007
  1217.07        239317.      -0.264337E+011   4500.83       0.314236E+007  0.183550E+007
  1248.69        239317.      -0.262515E+011   4497.96       0.313560E+007  0.182740E+007
  1280.32        239317.      -0.260690E+011   4495.07       0.312880E+007  0.181928E+007
  1311.94        239317.      -0.258862E+011   4492.17       0.312198E+007  0.181114E+007
  1343.56        239317.      -0.257032E+011   4489.26       0.311513E+007  0.180298E+007
  1375.18        239317.      -0.255259E+011   4488.52       0.311341E+007  0.179360E+007
  1406.81        239317.      -0.253778E+011   4498.62       0.313808E+007  0.177860E+007
  1438.43        239317.      -0.252181E+011   4504.98       0.315465E+007  0.176598E+007
  1470.05        239317.      -0.250506E+011   4508.90       0.316580E+007  0.175483E+007
  1501.68        239317.      -0.248777E+011   4511.14       0.317317E+007  0.174467E+007
  1533.30        239317.      -0.247008E+011   4512.20       0.317782E+007  0.173517E+007
  300.000        251283.      -0.302163E+011   4590.60       0.336152E+007  0.209034E+007
  331.623        251283.      -0.300992E+011   4588.89       0.335739E+007  0.208457E+007
  363.246        251283.      -0.299723E+011   4587.05       0.335293E+007  0.207818E+007
  394.869        251283.      -0.298367E+011   4585.10       0.334817E+007  0.207121E+007
  426.492        251283.      -0.296936E+011   4583.05       0.334316E+007  0.206370E+007
  458.115        251283.      -0.295440E+011   4580.92       0.333793E+007  0.205571E+007
  489.738        251283.      -0.293887E+011   4578.72       0.333250E+007  0.204727E+007
  521.362        251283.      -0.292282E+011   4576.46       0.332690E+007  0.203843E+007
  552.985        251283.      -0.290632E+011   4574.14       0.332114E+007  0.202921E+007
  584.608        251283.      -0.288941E+011   4571.77       0.331525E+007  0.201966E+007
  616.231        251283.      -0.287213E+011   4569.36       0.330922E+007  0.200981E+007
  647.854        251283.      -0.285451E+011   4566.92       0.330309E+007  0.199969E+007
  679.477        251283.      -0.283679E+011   4564.44       0.329690E+007  0.198984E+007
  711.100        251283.      -0.281996E+011   4561.92       0.329092E+007  0.198246E+007
  742.723        251283.      -0.280297E+011   4559.38       0.328488E+007  0.197501E+007
  774.346        251283.      -0.278583E+011   4556.81       0.327877E+007  0.196750E+007
  805.969        251283.      -0.276857E+011   4554.22       0.327260E+007  0.195992E+007
  837.592        251283.      -0.275120E+011   4551.61       0.326638E+007  0.195229E+007
  869.215        251283.      -0.273372E+011   4548.97       0.326012E+007  0.194460E+007
  900.838        251283.      -0.271615E+011   4546.31       0.325380E+007  0.193687E+007
  932.462        251283.      -0.269850E+011   4543.64       0.324745E+007  0.192910E+007
  964.085        251283.      -0.268077E+011   4540.94       0.324105E+007  0.192129E+007
  995.708        251283.      -0.266298E+011   4538.23       0.323461E+007  0.191344E+007
  1027.33        251283.      -0.264512E+011   4535.51       0.322814E+007  0.190556E+007
  1058.95        251283.      -0.262721E+011   4532.76       0.322163E+007  0.189764E+007
  1090.58        251283.      -0.260925E+011   4530.00       0.321509E+007  0.188970E+007
  1122.20        251283.      -0.259124E+011   4527.23       0.320851E+007  0.188172E+007
  1153.82        251283.      -0.257318E+011   4524.44       0.320190E+007  0.187372E+007
  1185.45        251283.      -0.255508E+011   4521.64       0.319527E+007  0.186570E+007
  1217.07        251283.      -0.253695E+011   4518.83       0.318860E+007  0.185765E+007
  1248.69        251283.      -0.252067E+011   4521.86       0.319556E+007  0.184590E+007
  1280.32        251283.      -0.250704E+011   4533.46       0.322346E+007  0.182917E+007
  1311.94        251283.      -0.249177E+011   4540.39       0.324119E+007  0.181570E+007
  1343.56        251283.      -0.247548E+011   4544.45       0.325252E+007  0.180415E+007
  1375.18        251283.      -0.245850E+011   4546.64       0.325961E+007  0.179379E+007
  1406.81        251283.      -0.244104E+011   4547.57       0.326378E+007  0.178422E+007
  1438.43        251283.      -0.242324E+011   4547.58       0.326584E+007  0.177519E+007
  1470.05        251283.      -0.240517E+011   4546.94       0.326636E+007  0.176652E+007
  1501.68        251283.      -0.238691E+011   4545.80       0.326570E+007  0.175812E+007
  1533.30        251283.      -0.236849E+011   4544.28       0.326415E+007  0.174992E+007
  300.000        263248.      -0.291317E+011   4607.33       0.340593E+007  0.211147E+007
  331.623        263248.      -0.290152E+011   4605.65       0.340185E+007  0.210574E+007
  363.246        263248.      -0.288888E+011   4603.84       0.339743E+007  0.209938E+007
  394.869        263248.      -0.287538E+011   4601.92       0.339272E+007  0.209244E+007
  426.492        263248.      -0.286113E+011   4599.90       0.338776E+007  0.208497E+007
  458.115        263248.      -0.284623E+011   4597.80       0.338257E+007  0.207702E+007
  489.738        263248.      -0.283074E+011   4595.63       0.337719E+007  0.206861E+007
  521.362        263248.      -0.281475E+011   4593.40       0.337163E+007  0.205980E+007
  552.985        263248.      -0.279829E+011   4591.12       0.336592E+007  0.205062E+007
  584.608        263248.      -0.278143E+011   4588.79       0.336007E+007  0.204110E+007
  616.231        263248.      -0.276419E+011   4586.41       0.335409E+007  0.203128E+007
  647.854        263248.      -0.274662E+011   4584.00       0.334800E+007  0.202119E+007
  679.477        263248.      -0.272895E+011   4581.56       0.334186E+007  0.201136E+007
  711.100        263248.      -0.271216E+011   4579.08       0.333594E+007  0.200401E+007
  742.723        263248.      -0.269522E+011   4576.57       0.332995E+007  0.199659E+007
  774.346        263248.      -0.267813E+011   4574.04       0.332390E+007  0.198909E+007
  805.969        263248.      -0.266091E+011   4571.49       0.331779E+007  0.198154E+007
  837.592        263248.      -0.264359E+011   4568.91       0.331163E+007  0.197393E+007
  869.215        263248.      -0.262616E+011   4566.31       0.330542E+007  0.196627E+007
  900.838        263248.      -0.260863E+011   4563.69       0.329917E+007  0.195857E+007
  932.462        263248.      -0.259103E+011   4561.06       0.329287E+007  0.195082E+007
  964.085        263248.      -0.257335E+011   4558.40       0.328653E+007  0.194303E+007
  995.708        263248.      -0.255560E+011   4555.73       0.328016E+007  0.193521E+007
  1027.33        263248.      -0.253779E+011   4553.04       0.327375E+007  0.192735E+007
  1058.95        263248.      -0.251992E+011   4550.34       0.326730E+007  0.191946E+007
  1090.58        263248.      -0.250227E+011   4548.34       0.326246E+007  0.191103E+007
  1122.20        263248.      -0.249224E+011   4567.04       0.330566E+007  0.188830E+007
  1153.82        263248.      -0.247874E+011   4576.88       0.332976E+007  0.187230E+007
  1185.45        263248.      -0.246343E+011   4582.18       0.334373E+007  0.185961E+007
  1217.07        263248.      -0.244703E+011   4584.85       0.335176E+007  0.184876E+007
  1248.69        263248.      -0.242995E+011   4585.90       0.335603E+007  0.183901E+007
  1280.32        263248.      -0.241241E+011   4585.88       0.335780E+007  0.182994E+007
  1311.94        263248.      -0.239454E+011   4585.11       0.335785E+007  0.182133E+007
  1343.56        263248.      -0.237643E+011   4583.82       0.335666E+007  0.181303E+007
  1375.18        263248.      -0.235814E+011   4582.15       0.335455E+007  0.180495E+007
  1406.81        263248.      -0.233970E+011   4580.18       0.335174E+007  0.179702E+007
  1438.43        263248.      -0.232115E+011   4577.98       0.334841E+007  0.178921E+007
  1470.05        263248.      -0.230251E+011   4575.60       0.334465E+007  0.178148E+007
  1501.68        263248.      -0.228379E+011   4573.08       0.334056E+007  0.177381E+007
  1533.30        263248.      -0.226500E+011   4570.44       0.333619E+007  0.176618E+007
  300.000        275214.      -0.280416E+011   4623.90       0.345017E+007  0.213245E+007
  331.623        275214.      -0.279257E+011   4622.24       0.344614E+007  0.212675E+007
  363.246        275214.      -0.277999E+011   4620.46       0.344176E+007  0.212043E+007
  394.869        275214.      -0.276655E+011   4618.56       0.343710E+007  0.211352E+007
  426.492        275214.      -0.275235E+011   4616.57       0.343218E+007  0.210609E+007
  458.115        275214.      -0.273749E+011   4614.51       0.342704E+007  0.209816E+007
  489.738        275214.      -0.272206E+011   4612.37       0.342170E+007  0.208979E+007
  521.362        275214.      -0.270611E+011   4610.17       0.341619E+007  0.208101E+007
  552.985        275214.      -0.268970E+011   4607.92       0.341052E+007  0.207186E+007
  584.608        275214.      -0.267288E+011   4605.62       0.340471E+007  0.206237E+007
  616.231        275214.      -0.265569E+011   4603.28       0.339878E+007  0.205258E+007
  647.854        275214.      -0.263816E+011   4600.90       0.339273E+007  0.204252E+007
  679.477        275214.      -0.262053E+011   4598.49       0.338663E+007  0.203271E+007
  711.100        275214.      -0.260379E+011   4596.05       0.338076E+007  0.202539E+007
  742.723        275214.      -0.258689E+011   4593.58       0.337483E+007  0.201799E+007
  774.346        275214.      -0.256984E+011   4591.08       0.336883E+007  0.201052E+007
  805.969        275214.      -0.255267E+011   4588.56       0.336278E+007  0.200299E+007
  837.592        275214.      -0.253539E+011   4586.02       0.335668E+007  0.199541E+007
  869.215        275214.      -0.251800E+011   4583.46       0.335052E+007  0.198777E+007
  900.838        275214.      -0.250052E+011   4580.88       0.334433E+007  0.198009E+007
  932.462        275214.      -0.249716E+011   4610.88       0.341163E+007  0.194787E+007
  964.085        275214.      -0.248648E+011   4624.70       0.344459E+007  0.192859E+007
  995.708        275214.      -0.247199E+011   4630.21       0.345892E+007  0.191557E+007
  1027.33        275214.      -0.245581E+011   4632.16       0.346505E+007  0.190513E+007
  1058.95        275214.      -0.243874E+011   4632.26       0.346692E+007  0.189597E+007
  1090.58        275214.      -0.242113E+011   4631.32       0.346634E+007  0.188751E+007
  1122.20        275214.      -0.240319E+011   4629.74       0.346424E+007  0.187946E+007
  1153.82        275214.      -0.238501E+011   4627.73       0.346114E+007  0.187167E+007
  1185.45        275214.      -0.236667E+011   4625.43       0.345737E+007  0.186405E+007
  1217.07        275214.      -0.234820E+011   4622.94       0.345313E+007  0.185653E+007
  1248.69        275214.      -0.232963E+011   4620.29       0.344854E+007  0.184908E+007
  1280.32        275214.      -0.231099E+011   4617.54       0.344369E+007  0.184168E+007
  1311.94        275214.      -0.229228E+011   4614.69       0.343865E+007  0.183432E+007
  1343.56        275214.      -0.227352E+011   4611.78       0.343345E+007  0.182697E+007
  1375.18        275214.      -0.225472E+011   4608.81       0.342812E+007  0.181963E+007
  1406.81        275214.      -0.223587E+011   4605.79       0.342270E+007  0.181230E+007
  1438.43        275214.      -0.221699E+011   4602.74       0.341719E+007  0.180498E+007
  1470.05        275214.      -0.219807E+011   4599.65       0.341161E+007  0.179765E+007
  1501.68        275214.      -0.217913E+011   4596.52       0.340597E+007  0.179032E+007
  1533.30        275214.      -0.216016E+011   4593.38       0.340029E+007  0.178298E+007
  300.000        287180.      -0.269462E+011   4640.29       0.349426E+007  0.215329E+007
  331.623        287180.      -0.268309E+011   4638.66       0.349026E+007  0.214762E+007
  363.246        287180.      -0.267056E+011   4636.91       0.348593E+007  0.214133E+007
  394.869        287180.      -0.265717E+011   4635.04       0.348131E+007  0.213445E+007
  426.492        287180.      -0.264302E+011   4633.08       0.347643E+007  0.212705E+007
  458.115        287180.      -0.262822E+011   4631.04       0.347133E+007  0.211916E+007
  489.738        287180.      -0.261283E+011   4628.94       0.346604E+007  0.211082E+007
  521.362        287180.      -0.259693E+011   4626.77       0.346057E+007  0.210207E+007
  552.985        287180.      -0.262333E+011   4706.41       0.362882E+007  0.202571E+007
  584.608        287180.      -0.261544E+011   4721.78       0.366503E+007  0.200111E+007
  616.231        287180.      -0.259922E+011   4720.51       0.366360E+007  0.199345E+007
  647.854        287180.      -0.258201E+011   4717.63       0.365846E+007  0.198726E+007
  679.477        287180.      -0.256458E+011   4714.70       0.365325E+007  0.198100E+007
  711.100        287180.      -0.254698E+011   4711.74       0.364799E+007  0.197466E+007
  742.723        287180.      -0.252907E+011   4708.53       0.364216E+007  0.196827E+007
  774.346        287180.      -0.251043E+011   4704.41       0.363421E+007  0.196193E+007
  805.969        287180.      -0.249162E+011   4700.18       0.362593E+007  0.195562E+007
  837.592        287180.      -0.247265E+011   4695.82       0.361730E+007  0.194936E+007
  869.215        287180.      -0.245358E+011   4691.39       0.360845E+007  0.194312E+007
  900.838        287180.      -0.243447E+011   4687.00       0.359964E+007  0.193687E+007
  932.462        287180.      -0.241537E+011   4682.71       0.359105E+007  0.193055E+007
  964.085        287180.      -0.239631E+011   4678.55       0.358276E+007  0.192414E+007
  995.708        287180.      -0.237728E+011   4674.51       0.357475E+007  0.191766E+007
  1027.33        287180.      -0.235827E+011   4670.59       0.356701E+007  0.191110E+007
  1058.95        287180.      -0.233928E+011   4666.77       0.355950E+007  0.190447E+007
  1090.58        287180.      -0.232030E+011   4663.03       0.355219E+007  0.189777E+007
  1122.20        287180.      -0.230133E+011   4659.35       0.354505E+007  0.189102E+007
  1153.82        287180.      -0.228237E+011   4655.74       0.353804E+007  0.188422E+007
  1185.45        287180.      -0.226340E+011   4652.17       0.353115E+007  0.187737E+007
  1217.07        287180.      -0.224443E+011   4648.64       0.352437E+007  0.187048E+007
  1248.69        287180.      -0.222545E+011   4645.14       0.351767E+007  0.186355E+007
  1280.32        287180.      -0.220647E+011   4641.67       0.351105E+007  0.185659E+007
  1311.94        287180.      -0.218748E+011   4638.22       0.350449E+007  0.184960E+007
  1343.56        287180.      -0.216848E+011   4634.79       0.349798E+007  0.184257E+007
  1375.18        287180.      -0.214947E+011   4631.37       0.349151E+007  0.183552E+007
  1406.81        287180.      -0.213045E+011   4627.96       0.348509E+007  0.182845E+007
  1438.43        287180.      -0.211142E+011   4624.57       0.347870E+007  0.182134E+007
  1470.05        287180.      -0.209238E+011   4621.18       0.347234E+007  0.181422E+007
  1501.68        287180.      -0.207333E+011   4617.79       0.346600E+007  0.180707E+007
  1533.30        287180.      -0.205427E+011   4614.41       0.345968E+007  0.179990E+007
  300.000        299146.      -0.261628E+011   4714.27       0.365247E+007  0.212612E+007
  331.623        299146.      -0.260846E+011   4720.42       0.366582E+007  0.211007E+007
  363.246        299146.      -0.260037E+011   4728.08       0.368281E+007  0.209174E+007
  394.869        299146.      -0.259255E+011   4738.09       0.370554E+007  0.207028E+007
  426.492        299146.      -0.258576E+011   4751.92       0.373773E+007  0.204410E+007
  458.115        299146.      -0.257079E+011   4749.60       0.373365E+007  0.203854E+007
  489.738        299146.      -0.255524E+011   4747.04       0.372904E+007  0.203300E+007
  521.362        299146.      -0.253927E+011   4744.40       0.372431E+007  0.202731E+007
  552.985        299146.      -0.252293E+011   4741.69       0.371946E+007  0.202148E+007
  584.608        299146.      -0.250629E+011   4738.93       0.371451E+007  0.201553E+007
  616.231        299146.      -0.248937E+011   4736.12       0.370948E+007  0.200948E+007
  647.854        299146.      -0.247221E+011   4733.26       0.370437E+007  0.200334E+007
  679.477        299146.      -0.245484E+011   4730.37       0.369920E+007  0.199711E+007
  711.100        299146.      -0.243730E+011   4727.44       0.369396E+007  0.199081E+007
  742.723        299146.      -0.241959E+011   4724.47       0.368867E+007  0.198445E+007
  774.346        299146.      -0.240174E+011   4721.48       0.368333E+007  0.197802E+007
  805.969        299146.      -0.238376E+011   4718.46       0.367795E+007  0.197154E+007
  837.592        299146.      -0.236567E+011   4715.42       0.367253E+007  0.196501E+007
  869.215        299146.      -0.234748E+011   4712.35       0.366707E+007  0.195843E+007
  900.838        299146.      -0.232873E+011   4708.56       0.365984E+007  0.195194E+007
  932.462        299146.      -0.230981E+011   4704.59       0.365215E+007  0.194547E+007
  964.085        299146.      -0.229084E+011   4700.63       0.364445E+007  0.193898E+007
  995.708        299146.      -0.227183E+011   4696.68       0.363676E+007  0.193247E+007
  1027.33        299146.      -0.225280E+011   4692.76       0.362911E+007  0.192593E+007
  1058.95        299146.      -0.223375E+011   4688.87       0.362151E+007  0.191937E+007
  1090.58        299146.      -0.221468E+011   4685.01       0.361398E+007  0.191277E+007
  1122.20        299146.      -0.219561E+011   4681.19       0.360652E+007  0.190613E+007
  1153.82        299146.      -0.217654E+011   4677.41       0.359914E+007  0.189946E+007
  1185.45        299146.      -0.215746E+011   4673.66       0.359185E+007  0.189275E+007
  1217.07        299146.      -0.213839E+011   4669.95       0.358464E+007  0.188600E+007
  1248.69        299146.      -0.211931E+011   4666.27       0.357751E+007  0.187922E+007
  1280.32        299146.      -0.210023E+011   4662.63       0.357046E+007  0.187240E+007
  1311.94        299146.      -0.208114E+011   4659.01       0.356348E+007  0.186555E+007
  1343.56        299146.      -0.206206E+011   4655.41       0.355656E+007  0.185866E+007
  1375.18        299146.      -0.204298E+011   4651.84       0.354971E+007  0.185174E+007
  1406.81        299146.      -0.202389E+011   4648.29       0.354291E+007  0.184480E+007
  1438.43        299146.      -0.200480E+011   4644.76       0.353616E+007  0.183782E+007
  1470.05        299146.      -0.198571E+011   4641.24       0.352946E+007  0.183082E+007
  1501.68        299146.      -0.196665E+011   4637.81       0.352302E+007  0.182376E+007
  1533.30        299146.      -0.194752E+011   4634.24       0.351618E+007  0.181673E+007
  300.000        311112.      -0.252803E+011   4776.00       0.379928E+007  0.207832E+007
  331.623        311112.      -0.251612E+011   4774.06       0.379577E+007  0.207410E+007
  363.246        311112.      -0.250324E+011   4771.96       0.379198E+007  0.206954E+007
  394.869        311112.      -0.248953E+011   4769.73       0.378794E+007  0.206469E+007
  426.492        311112.      -0.247513E+011   4767.37       0.378369E+007  0.205958E+007
  458.115        311112.      -0.246015E+011   4764.92       0.377927E+007  0.205427E+007
  489.738        311112.      -0.244466E+011   4762.38       0.377469E+007  0.204877E+007
  521.362        311112.      -0.242875E+011   4759.77       0.376999E+007  0.204311E+007
  552.985        311112.      -0.241248E+011   4757.09       0.376517E+007  0.203732E+007
  584.608        311112.      -0.239589E+011   4754.36       0.376025E+007  0.203141E+007
  616.231        311112.      -0.237903E+011   4751.58       0.375525E+007  0.202540E+007
  647.854        311112.      -0.236193E+011   4748.75       0.375017E+007  0.201929E+007
  679.477        311112.      -0.234462E+011   4745.89       0.374502E+007  0.201310E+007
  711.100        311112.      -0.232713E+011   4742.99       0.373982E+007  0.200684E+007
  742.723        311112.      -0.230948E+011   4740.05       0.373456E+007  0.200051E+007
  774.346        311112.      -0.229168E+011   4737.09       0.372925E+007  0.199412E+007
  805.969        311112.      -0.227376E+011   4734.10       0.372389E+007  0.198768E+007
  837.592        311112.      -0.225572E+011   4731.09       0.371850E+007  0.198119E+007
  869.215        311112.      -0.223758E+011   4728.05       0.371307E+007  0.197465E+007
  900.838        311112.      -0.221935E+011   4724.99       0.370761E+007  0.196807E+007
  932.462        311112.      -0.220103E+011   4721.91       0.370211E+007  0.196145E+007
  964.085        311112.      -0.218264E+011   4718.82       0.369659E+007  0.195479E+007
  995.708        311112.      -0.216419E+011   4715.70       0.369103E+007  0.194810E+007
  1027.33        311112.      -0.214548E+011   4712.28       0.368470E+007  0.194146E+007
  1058.95        311112.      -0.212645E+011   4708.42       0.367724E+007  0.193491E+007
  1090.58        311112.      -0.210741E+011   4704.59       0.366982E+007  0.192834E+007
  1122.20        311112.      -0.208834E+011   4700.78       0.366243E+007  0.192174E+007
  1153.82        311112.      -0.206927E+011   4696.99       0.365509E+007  0.191512E+007
  1185.45        311112.      -0.205018E+011   4693.23       0.364779E+007  0.190847E+007
  1217.07        311112.      -0.203109E+011   4689.49       0.364054E+007  0.190178E+007
  1248.69        311112.      -0.201199E+011   4685.78       0.363335E+007  0.189507E+007
  1280.32        311112.      -0.199289E+011   4682.08       0.362620E+007  0.188833E+007
  1311.94        311112.      -0.197378E+011   4678.42       0.361911E+007  0.188156E+007
  1343.56        311112.      -0.195468E+011   4674.77       0.361207E+007  0.187476E+007
  1375.18        311112.      -0.193557E+011   4671.14       0.360508E+007  0.186793E+007
  1406.81        311112.      -0.191646E+011   4667.54       0.359813E+007  0.186107E+007
  1438.43        311112.      -0.189735E+011   4663.95       0.359124E+007  0.185418E+007
  1470.05        311112.      -0.187824E+011   4660.37       0.358439E+007  0.184727E+007
  1501.68        311112.      -0.185913E+011   4656.82       0.357757E+007  0.184033E+007
  1533.30        311112.      -0.184002E+011   4653.27       0.357080E+007  0.183336E+007
  300.000        323077.      -0.241659E+011   4791.06       0.384465E+007  0.209375E+007
  331.623        323077.      -0.240475E+011   4789.14       0.384118E+007  0.208958E+007
  363.246        323077.      -0.239194E+011   4787.07       0.383741E+007  0.208505E+007
  394.869        323077.      -0.237830E+011   4784.86       0.383340E+007  0.208023E+007
  426.492        323077.      -0.236396E+011   4782.53       0.382918E+007  0.207517E+007
  458.115        323077.      -0.234904E+011   4780.10       0.382479E+007  0.206989E+007
  489.738        323077.      -0.233362E+011   4777.59       0.382024E+007  0.206443E+007
  521.362        323077.      -0.231777E+011   4775.01       0.381556E+007  0.205881E+007
  552.985        323077.      -0.230155E+011   4772.36       0.381077E+007  0.205305E+007
  584.608        323077.      -0.228502E+011   4769.65       0.380588E+007  0.204718E+007
  616.231        323077.      -0.226822E+011   4766.90       0.380091E+007  0.204120E+007
  647.854        323077.      -0.225117E+011   4764.10       0.379586E+007  0.203513E+007
  679.477        323077.      -0.223392E+011   4761.26       0.379074E+007  0.202898E+007
  711.100        323077.      -0.221648E+011   4758.39       0.378556E+007  0.202275E+007
  742.723        323077.      -0.219888E+011   4755.49       0.378033E+007  0.201646E+007
  774.346        323077.      -0.218114E+011   4752.55       0.377505E+007  0.201011E+007
  805.969        323077.      -0.216327E+011   4749.59       0.376972E+007  0.200371E+007
  837.592        323077.      -0.214528E+011   4746.61       0.376436E+007  0.199725E+007
  869.215        323077.      -0.212720E+011   4743.60       0.375896E+007  0.199075E+007
  900.838        323077.      -0.210901E+011   4740.57       0.375352E+007  0.198421E+007
  932.462        323077.      -0.209075E+011   4737.52       0.374805E+007  0.197762E+007
  964.085        323077.      -0.207241E+011   4734.46       0.374256E+007  0.197100E+007
  995.708        323077.      -0.205401E+011   4731.37       0.373704E+007  0.196435E+007
  1027.33        323077.      -0.203554E+011   4728.27       0.373149E+007  0.195766E+007
  1058.95        323077.      -0.201701E+011   4725.16       0.372592E+007  0.195095E+007
  1090.58        323077.      -0.199843E+011   4722.03       0.372032E+007  0.194420E+007
  1122.20        323077.      -0.197981E+011   4718.88       0.371471E+007  0.193743E+007
  1153.82        323077.      -0.196113E+011   4715.71       0.370902E+007  0.193064E+007
  1185.45        323077.      -0.194205E+011   4711.93       0.370173E+007  0.192405E+007
  1217.07        323077.      -0.192296E+011   4708.18       0.369448E+007  0.191743E+007
  1248.69        323077.      -0.190386E+011   4704.45       0.368726E+007  0.191078E+007
  1280.32        323077.      -0.188475E+011   4700.75       0.368009E+007  0.190411E+007
  1311.94        323077.      -0.186565E+011   4697.06       0.367296E+007  0.189740E+007
  1343.56        323077.      -0.184654E+011   4693.39       0.366587E+007  0.189068E+007
  1375.18        323077.      -0.182742E+011   4689.74       0.365882E+007  0.188392E+007
  1406.81        323077.      -0.180831E+011   4686.11       0.365182E+007  0.187714E+007
  1438.43        323077.      -0.178920E+011   4682.49       0.364485E+007  0.187033E+007
  1470.05        323077.      -0.177008E+011   4678.89       0.363792E+007  0.186349E+007
  1501.68        323077.      -0.175097E+011   4675.31       0.363103E+007  0.185663E+007
  1533.30        323077.      -0.173185E+011   4671.73       0.362418E+007  0.184974E+007
  300.000        335043.      -0.230470E+011   4805.98       0.388992E+007  0.210908E+007
  331.623        335043.      -0.229293E+011   4804.09       0.388648E+007  0.210494E+007
  363.246        335043.      -0.228018E+011   4802.04       0.388274E+007  0.210046E+007
  394.869        335043.      -0.226661E+011   4799.85       0.387876E+007  0.209567E+007
  426.492        335043.      -0.225234E+011   4797.55       0.387457E+007  0.209064E+007
  458.115        335043.      -0.223748E+011   4795.15       0.387020E+007  0.208540E+007
  489.738        335043.      -0.222212E+011   4792.66       0.386568E+007  0.207997E+007
  521.362        335043.      -0.220633E+011   4790.11       0.386103E+007  0.207439E+007
  552.985        335043.      -0.219017E+011   4787.48       0.385627E+007  0.206867E+007
  584.608        335043.      -0.217369E+011   4784.81       0.385141E+007  0.206283E+007
  616.231        335043.      -0.215694E+011   4782.08       0.384646E+007  0.205689E+007
  647.854        335043.      -0.213995E+011   4779.31       0.384144E+007  0.205086E+007
  679.477        335043.      -0.212275E+011   4776.50       0.383635E+007  0.204474E+007
  711.100        335043.      -0.210537E+011   4773.65       0.383120E+007  0.203855E+007
  742.723        335043.      -0.208782E+011   4770.78       0.382599E+007  0.203230E+007
  774.346        335043.      -0.207013E+011   4767.87       0.382074E+007  0.202598E+007
  805.969        335043.      -0.205231E+011   4764.94       0.381544E+007  0.201961E+007
  837.592        335043.      -0.203437E+011   4761.98       0.381010E+007  0.201319E+007
  869.215        335043.      -0.201633E+011   4759.01       0.380473E+007  0.200673E+007
  900.838        335043.      -0.199820E+011   4756.01       0.379932E+007  0.200022E+007
  932.462        335043.      -0.197999E+011   4752.99       0.379388E+007  0.199367E+007
  964.085        335043.      -0.196170E+011   4749.95       0.378841E+007  0.198709E+007
  995.708        335043.      -0.194334E+011   4746.90       0.378292E+007  0.198047E+007
  1027.33        335043.      -0.192492E+011   4743.83       0.377740E+007  0.197383E+007
  1058.95        335043.      -0.190644E+011   4740.74       0.377186E+007  0.196715E+007
  1090.58        335043.      -0.188791E+011   4737.64       0.376629E+007  0.196044E+007
  1122.20        335043.      -0.186934E+011   4734.53       0.376071E+007  0.195371E+007
  1153.82        335043.      -0.185072E+011   4731.40       0.375510E+007  0.194695E+007
  1185.45        335043.      -0.183206E+011   4728.26       0.374947E+007  0.194016E+007
  1217.07        335043.      -0.181336E+011   4725.10       0.374383E+007  0.193336E+007
  1248.69        335043.      -0.179464E+011   4721.94       0.373817E+007  0.192653E+007
  1280.32        335043.      -0.177588E+011   4718.76       0.373249E+007  0.191967E+007
  1311.94        335043.      -0.175687E+011   4715.22       0.372579E+007  0.191297E+007
  1343.56        335043.      -0.173776E+011   4711.53       0.371867E+007  0.190631E+007
  1375.18        335043.      -0.171865E+011   4707.87       0.371158E+007  0.189963E+007
  1406.81        335043.      -0.169954E+011   4704.22       0.370453E+007  0.189293E+007
  1438.43        335043.      -0.168043E+011   4700.58       0.369751E+007  0.188619E+007
  1470.05        335043.      -0.166131E+011   4696.97       0.369054E+007  0.187943E+007
  1501.68        335043.      -0.164220E+011   4693.37       0.368359E+007  0.187265E+007
  1533.30        335043.      -0.162309E+011   4689.78       0.367668E+007  0.186584E+007
  300.000        347009.      -0.219238E+011   4820.77       0.393510E+007  0.212431E+007
  331.623        347009.      -0.218068E+011   4818.91       0.393168E+007  0.212021E+007
  363.246        347009.      -0.216799E+011   4816.88       0.392797E+007  0.211575E+007
  394.869        347009.      -0.215448E+011   4814.72       0.392402E+007  0.211101E+007
  426.492        347009.      -0.214027E+011   4812.44       0.391985E+007  0.210601E+007
  458.115        347009.      -0.212547E+011   4810.06       0.391551E+007  0.210080E+007
  489.738        347009.      -0.211017E+011   4807.61       0.391102E+007  0.209541E+007
  521.362        347009.      -0.209444E+011   4805.07       0.390640E+007  0.208986E+007
  552.985        347009.      -0.207834E+011   4802.48       0.390166E+007  0.208418E+007
  584.608        347009.      -0.206192E+011   4799.83       0.389683E+007  0.207838E+007
  616.231        347009.      -0.204522E+011   4797.13       0.389191E+007  0.207247E+007
  647.854        347009.      -0.202828E+011   4794.38       0.388691E+007  0.206647E+007
  679.477        347009.      -0.201113E+011   4791.60       0.388185E+007  0.206039E+007
  711.100        347009.      -0.199380E+011   4788.78       0.387672E+007  0.205424E+007
  742.723        347009.      -0.197630E+011   4785.93       0.387155E+007  0.204802E+007
  774.346        347009.      -0.195866E+011   4783.05       0.386632E+007  0.204174E+007
  805.969        347009.      -0.194089E+011   4780.15       0.386105E+007  0.203540E+007
  837.592        347009.      -0.192300E+011   4777.22       0.385574E+007  0.202902E+007
  869.215        347009.      -0.190501E+011   4774.27       0.385039E+007  0.202259E+007
  900.838        347009.      -0.188693E+011   4771.30       0.384501E+007  0.201612E+007
  932.462        347009.      -0.186876E+011   4768.31       0.383960E+007  0.200961E+007
  964.085        347009.      -0.185052E+011   4765.30       0.383416E+007  0.200306E+007
  995.708        347009.      -0.183220E+011   4762.27       0.382869E+007  0.199648E+007
  1027.33        347009.      -0.181383E+011   4759.23       0.382320E+007  0.198987E+007
  1058.95        347009.      -0.179540E+011   4756.18       0.381768E+007  0.198323E+007
  1090.58        347009.      -0.177692E+011   4753.11       0.381215E+007  0.197656E+007
  1122.20        347009.      -0.175839E+011   4750.02       0.380659E+007  0.196986E+007
  1153.82        347009.      -0.173982E+011   4746.92       0.380101E+007  0.196314E+007
  1185.45        347009.      -0.172120E+011   4743.81       0.379541E+007  0.195639E+007
  1217.07        347009.      -0.170255E+011   4740.69       0.378980E+007  0.194962E+007
  1248.69        347009.      -0.168387E+011   4737.55       0.378417E+007  0.194283E+007
  1280.32        347009.      -0.166516E+011   4734.41       0.377852E+007  0.193601E+007
  1311.94        347009.      -0.164642E+011   4731.25       0.377286E+007  0.192918E+007
  1343.56        347009.      -0.162765E+011   4728.08       0.376718E+007  0.192232E+007
  1375.18        347009.      -0.160885E+011   4724.90       0.376148E+007  0.191545E+007
  1406.81        347009.      -0.159004E+011   4721.72       0.375578E+007  0.190856E+007
  1438.43        347009.      -0.157110E+011   4718.34       0.374954E+007  0.190174E+007
  1470.05        347009.      -0.155199E+011   4714.71       0.374251E+007  0.189506E+007
  1501.68        347009.      -0.153288E+011   4711.09       0.373553E+007  0.188836E+007
  1533.30        347009.      -0.151378E+011   4707.49       0.372857E+007  0.188162E+007
  300.000        358975.      -0.207962E+011   4835.44       0.398018E+007  0.213944E+007
  331.623        358975.      -0.206799E+011   4833.60       0.397679E+007  0.213537E+007
  363.246        358975.      -0.205537E+011   4831.59       0.397310E+007  0.213095E+007
  394.869        358975.      -0.204192E+011   4829.46       0.396918E+007  0.212624E+007
  426.492        358975.      -0.202778E+011   4827.20       0.396504E+007  0.212128E+007
  458.115        358975.      -0.201303E+011   4824.85       0.396073E+007  0.211610E+007
  489.738        358975.      -0.199779E+011   4822.42       0.395626E+007  0.211074E+007
  521.362        358975.      -0.198211E+011   4819.91       0.395166E+007  0.210523E+007
  552.985        358975.      -0.196606E+011   4817.34       0.394695E+007  0.209958E+007
  584.608        358975.      -0.194970E+011   4814.71       0.394215E+007  0.209381E+007
  616.231        358975.      -0.193305E+011   4812.04       0.393725E+007  0.208794E+007
  647.854        358975.      -0.191616E+011   4809.32       0.393228E+007  0.208198E+007
  679.477        358975.      -0.189907E+011   4806.57       0.392724E+007  0.207593E+007
  711.100        358975.      -0.188178E+011   4803.77       0.392215E+007  0.206981E+007
  742.723        358975.      -0.186433E+011   4800.95       0.391699E+007  0.206362E+007
  774.346        358975.      -0.184674E+011   4798.10       0.391179E+007  0.205738E+007
  805.969        358975.      -0.182901E+011   4795.22       0.390655E+007  0.205108E+007
  837.592        358975.      -0.181117E+011   4792.32       0.390127E+007  0.204473E+007
  869.215        358975.      -0.179323E+011   4789.40       0.389595E+007  0.203834E+007
  900.838        358975.      -0.177519E+011   4786.45       0.389059E+007  0.203190E+007
  932.462        358975.      -0.175707E+011   4783.49       0.388521E+007  0.202542E+007
  964.085        358975.      -0.173887E+011   4780.51       0.387979E+007  0.201891E+007
  995.708        358975.      -0.172061E+011   4777.51       0.387435E+007  0.201237E+007
  1027.33        358975.      -0.170228E+011   4774.50       0.386889E+007  0.200579E+007
  1058.95        358975.      -0.168389E+011   4771.47       0.386340E+007  0.199918E+007
  1090.58        358975.      -0.166546E+011   4768.43       0.385789E+007  0.199255E+007
  1122.20        358975.      -0.164697E+011   4765.37       0.385236E+007  0.198589E+007
  1153.82        358975.      -0.162844E+011   4762.30       0.384680E+007  0.197920E+007
  1185.45        358975.      -0.160988E+011   4759.22       0.384124E+007  0.197249E+007
  1217.07        358975.      -0.159127E+011   4756.13       0.383565E+007  0.196576E+007
  1248.69        358975.      -0.157263E+011   4753.02       0.383004E+007  0.195900E+007
  1280.32        358975.      -0.155397E+011   4749.91       0.382443E+007  0.195222E+007
  1311.94        358975.      -0.153527E+011   4746.78       0.381879E+007  0.194543E+007
  1343.56        358975.      -0.151654E+011   4743.64       0.381314E+007  0.193861E+007
  1375.18        358975.      -0.149780E+011   4740.49       0.380748E+007  0.193177E+007
  1406.81        358975.      -0.147903E+011   4737.33       0.380180E+007  0.192492E+007
  1438.43        358975.      -0.146023E+011   4734.16       0.379610E+007  0.191804E+007
  1470.05        358975.      -0.144142E+011   4730.99       0.379040E+007  0.191115E+007
  1501.68        358975.      -0.142259E+011   4727.80       0.378468E+007  0.190424E+007
  1533.30        358975.      -0.140375E+011   4724.60       0.377895E+007  0.189732E+007
  300.000        370941.      -0.196645E+011   4849.99       0.402517E+007  0.215447E+007
  331.623        370941.      -0.195488E+011   4848.17       0.402180E+007  0.215043E+007
  363.246        370941.      -0.194233E+011   4846.19       0.401814E+007  0.214605E+007
  394.869        370941.      -0.192894E+011   4844.07       0.401424E+007  0.214137E+007
  426.492        370941.      -0.191485E+011   4841.84       0.401013E+007  0.213644E+007
  458.115        370941.      -0.190017E+011   4839.51       0.400584E+007  0.213130E+007
  489.738        370941.      -0.188498E+011   4837.10       0.400140E+007  0.212598E+007
  521.362        370941.      -0.186936E+011   4834.62       0.399683E+007  0.212050E+007
  552.985        370941.      -0.185336E+011   4832.08       0.399215E+007  0.211488E+007
  584.608        370941.      -0.183704E+011   4829.47       0.398736E+007  0.210915E+007
  616.231        370941.      -0.182045E+011   4826.83       0.398250E+007  0.210331E+007
  647.854        370941.      -0.180361E+011   4824.13       0.397755E+007  0.209738E+007
  679.477        370941.      -0.178656E+011   4821.40       0.397254E+007  0.209136E+007
  711.100        370941.      -0.176933E+011   4818.64       0.396747E+007  0.208528E+007
  742.723        370941.      -0.175192E+011   4815.84       0.396234E+007  0.207912E+007
  774.346        370941.      -0.173438E+011   4813.01       0.395717E+007  0.207291E+007
  805.969        370941.      -0.171670E+011   4810.16       0.395195E+007  0.206665E+007
  837.592        370941.      -0.169890E+011   4807.29       0.394669E+007  0.206033E+007
  869.215        370941.      -0.168100E+011   4804.39       0.394139E+007  0.205397E+007
  900.838        370941.      -0.166301E+011   4801.48       0.393606E+007  0.204757E+007
  932.462        370941.      -0.164493E+011   4798.54       0.393071E+007  0.204113E+007
  964.085        370941.      -0.162678E+011   4795.59       0.392532E+007  0.203465E+007
  995.708        370941.      -0.160856E+011   4792.62       0.391990E+007  0.202814E+007
  1027.33        370941.      -0.159027E+011   4789.63       0.391446E+007  0.202160E+007
  1058.95        370941.      -0.157193E+011   4786.63       0.390900E+007  0.201503E+007
  1090.58        370941.      -0.155354E+011   4783.61       0.390352E+007  0.200843E+007
  1122.20        370941.      -0.153510E+011   4780.58       0.389801E+007  0.200180E+007
  1153.82        370941.      -0.151661E+011   4777.54       0.389249E+007  0.199515E+007
  1185.45        370941.      -0.149809E+011   4774.49       0.388695E+007  0.198847E+007
  1217.07        370941.      -0.147953E+011   4771.42       0.388139E+007  0.198178E+007
  1248.69        370941.      -0.146093E+011   4768.35       0.387581E+007  0.197506E+007
  1280.32        370941.      -0.144231E+011   4765.26       0.387022E+007  0.196831E+007
  1311.94        370941.      -0.142365E+011   4762.16       0.386461E+007  0.196155E+007
  1343.56        370941.      -0.140497E+011   4759.05       0.385899E+007  0.195477E+007
  1375.18        370941.      -0.138627E+011   4755.93       0.385335E+007  0.194797E+007
  1406.81        370941.      -0.136754E+011   4752.80       0.384770E+007  0.194115E+007
  1438.43        370941.      -0.134879E+011   4749.66       0.384204E+007  0.193432E+007
  1470.05        370941.      -0.133003E+011   4746.52       0.383636E+007  0.192746E+007
  1501.68        370941.      -0.131124E+011   4743.36       0.383067E+007  0.192059E+007
  1533.30        370941.      -0.129244E+011   4740.19       0.382497E+007  0.191370E+007
  300.000        382906.      -0.185287E+011   4864.42       0.407006E+007  0.216940E+007
  331.623        382906.      -0.184136E+011   4862.62       0.406672E+007  0.216540E+007
  363.246        382906.      -0.182887E+011   4860.66       0.406309E+007  0.216104E+007
  394.869        382906.      -0.181554E+011   4858.56       0.405921E+007  0.215640E+007
  426.492        382906.      -0.180151E+011   4856.36       0.405512E+007  0.215150E+007
  458.115        382906.      -0.178688E+011   4854.05       0.405086E+007  0.214639E+007
  489.738        382906.      -0.177175E+011   4851.67       0.404645E+007  0.214110E+007
  521.362        382906.      -0.175618E+011   4849.21       0.404190E+007  0.213566E+007
  552.985        382906.      -0.174024E+011   4846.69       0.403724E+007  0.213008E+007
  584.608        382906.      -0.172397E+011   4844.11       0.403249E+007  0.212437E+007
  616.231        382906.      -0.170742E+011   4841.49       0.402764E+007  0.211857E+007
  647.854        382906.      -0.169064E+011   4838.82       0.402272E+007  0.211267E+007
  679.477        382906.      -0.167363E+011   4836.11       0.401773E+007  0.210669E+007
  711.100        382906.      -0.165644E+011   4833.37       0.401269E+007  0.210064E+007
  742.723        382906.      -0.163909E+011   4830.60       0.400759E+007  0.209452E+007
  774.346        382906.      -0.162158E+011   4827.80       0.400244E+007  0.208834E+007
  805.969        382906.      -0.160395E+011   4824.98       0.399724E+007  0.208211E+007
  837.592        382906.      -0.158620E+011   4822.13       0.399201E+007  0.207582E+007
  869.215        382906.      -0.156834E+011   4819.26       0.398674E+007  0.206950E+007
  900.838        382906.      -0.155039E+011   4816.36       0.398143E+007  0.206313E+007
  932.462        382906.      -0.153236E+011   4813.45       0.397610E+007  0.205672E+007
  964.085        382906.      -0.151425E+011   4810.53       0.397074E+007  0.205028E+007
  995.708        382906.      -0.149607E+011   4807.58       0.396535E+007  0.204380E+007
  1027.33        382906.      -0.147783E+011   4804.62       0.395993E+007  0.203729E+007
  1058.95        382906.      -0.145953E+011   4801.65       0.395450E+007  0.203075E+007
  1090.58        382906.      -0.144118E+011   4798.66       0.394904E+007  0.202419E+007
  1122.20        382906.      -0.142278E+011   4795.66       0.394356E+007  0.201760E+007
  1153.82        382906.      -0.140433E+011   4792.65       0.393806E+007  0.201098E+007
  1185.45        382906.      -0.138585E+011   4789.62       0.393254E+007  0.200434E+007
  1217.07        382906.      -0.136733E+011   4786.58       0.392701E+007  0.199768E+007
  1248.69        382906.      -0.134878E+011   4783.53       0.392146E+007  0.199099E+007
  1280.32        382906.      -0.133019E+011   4780.47       0.391589E+007  0.198428E+007
  1311.94        382906.      -0.131158E+011   4777.40       0.391031E+007  0.197756E+007
  1343.56        382906.      -0.129294E+011   4774.32       0.390472E+007  0.197081E+007
  1375.18        382906.      -0.127428E+011   4771.23       0.389911E+007  0.196405E+007
  1406.81        382906.      -0.125560E+011   4768.13       0.389348E+007  0.195727E+007
  1438.43        382906.      -0.123689E+011   4765.02       0.388785E+007  0.195047E+007
  1470.05        382906.      -0.121816E+011   4761.90       0.388220E+007  0.194365E+007
  1501.68        382906.      -0.119942E+011   4758.77       0.387654E+007  0.193681E+007
  1533.30        382906.      -0.118066E+011   4755.63       0.387086E+007  0.192996E+007
  300.000        394872.      -0.173889E+011   4878.73       0.411486E+007  0.218424E+007
  331.623        394872.      -0.172744E+011   4876.95       0.411154E+007  0.218026E+007
  363.246        394872.      -0.171501E+011   4875.01       0.410794E+007  0.217594E+007
  394.869        394872.      -0.170174E+011   4872.94       0.410409E+007  0.217133E+007
  426.492        394872.      -0.168776E+011   4870.75       0.410003E+007  0.216647E+007
  458.115        394872.      -0.167319E+011   4868.47       0.409579E+007  0.216139E+007
  489.738        394872.      -0.165811E+011   4866.11       0.409140E+007  0.215613E+007
  521.362        394872.      -0.164259E+011   4863.67       0.408688E+007  0.215072E+007
  552.985        394872.      -0.162670E+011   4861.18       0.408224E+007  0.214517E+007
  584.608        394872.      -0.161048E+011   4858.62       0.407751E+007  0.213950E+007
  616.231        394872.      -0.159398E+011   4856.02       0.407269E+007  0.213373E+007
  647.854        394872.      -0.157724E+011   4853.38       0.406780E+007  0.212786E+007
  679.477        394872.      -0.156028E+011   4850.70       0.406283E+007  0.212191E+007
  711.100        394872.      -0.154314E+011   4847.98       0.405781E+007  0.211589E+007
  742.723        394872.      -0.152583E+011   4845.24       0.405273E+007  0.210981E+007
  774.346        394872.      -0.150837E+011   4842.46       0.404761E+007  0.210366E+007
  805.969        394872.      -0.149078E+011   4839.66       0.404244E+007  0.209746E+007
  837.592        394872.      -0.147307E+011   4836.84       0.403723E+007  0.209121E+007
  869.215        394872.      -0.145526E+011   4833.99       0.403198E+007  0.208491E+007
  900.838        394872.      -0.143735E+011   4831.13       0.402670E+007  0.207858E+007
  932.462        394872.      -0.141936E+011   4828.24       0.402139E+007  0.207220E+007
  964.085        394872.      -0.140129E+011   4825.34       0.401605E+007  0.206579E+007
  995.708        394872.      -0.138315E+011   4822.42       0.401069E+007  0.205935E+007
  1027.33        394872.      -0.136495E+011   4819.49       0.400530E+007  0.205287E+007
  1058.95        394872.      -0.134669E+011   4816.54       0.399989E+007  0.204637E+007
  1090.58        394872.      -0.132838E+011   4813.58       0.399445E+007  0.203984E+007
  1122.20        394872.      -0.131002E+011   4810.60       0.398900E+007  0.203328E+007
  1153.82        394872.      -0.129161E+011   4807.62       0.398353E+007  0.202669E+007
  1185.45        394872.      -0.127317E+011   4804.62       0.397804E+007  0.202009E+007
  1217.07        394872.      -0.125469E+011   4801.61       0.397253E+007  0.201346E+007
  1248.69        394872.      -0.123618E+011   4798.58       0.396700E+007  0.200681E+007
  1280.32        394872.      -0.121764E+011   4795.55       0.396146E+007  0.200014E+007
  1311.94        394872.      -0.119906E+011   4792.51       0.395591E+007  0.199344E+007
  1343.56        394872.      -0.118047E+011   4789.45       0.395034E+007  0.198673E+007
  1375.18        394872.      -0.116184E+011   4786.39       0.394475E+007  0.198000E+007
  1406.81        394872.      -0.114320E+011   4783.32       0.393916E+007  0.197326E+007
  1438.43        394872.      -0.112453E+011   4780.24       0.393355E+007  0.196649E+007
  1470.05        394872.      -0.110585E+011   4777.14       0.392792E+007  0.195971E+007
  1501.68        394872.      -0.108714E+011   4774.04       0.392229E+007  0.195291E+007
  1533.30        394872.      -0.106842E+011   4770.93       0.391664E+007  0.194610E+007
  300.000        406838.      -0.162451E+011   4892.92       0.415958E+007  0.219898E+007
  331.623        406838.      -0.161312E+011   4891.16       0.415628E+007  0.219504E+007
  363.246        406838.      -0.160075E+011   4889.24       0.415270E+007  0.219075E+007
  394.869        406838.      -0.158753E+011   4887.20       0.414887E+007  0.218617E+007
  426.492        406838.      -0.157362E+011   4885.03       0.414484E+007  0.218134E+007
  458.115        406838.      -0.155910E+011   4882.78       0.414062E+007  0.217629E+007
  489.738        406838.      -0.154407E+011   4880.43       0.413626E+007  0.217107E+007
  521.362        406838.      -0.152860E+011   4878.02       0.413176E+007  0.216568E+007
  552.985        406838.      -0.151275E+011   4875.55       0.412715E+007  0.216017E+007
  584.608        406838.      -0.149659E+011   4873.02       0.412244E+007  0.215453E+007
  616.231        406838.      -0.148013E+011   4870.44       0.411765E+007  0.214879E+007
  647.854        406838.      -0.146344E+011   4867.82       0.411278E+007  0.214295E+007
  679.477        406838.      -0.144653E+011   4865.16       0.410784E+007  0.213704E+007
  711.100        406838.      -0.142942E+011   4862.47       0.410284E+007  0.213105E+007
  742.723        406838.      -0.141216E+011   4859.75       0.409778E+007  0.212499E+007
  774.346        406838.      -0.139474E+011   4857.00       0.409268E+007  0.211888E+007
  805.969        406838.      -0.137719E+011   4854.22       0.408754E+007  0.211271E+007
  837.592        406838.      -0.135952E+011   4851.42       0.408235E+007  0.210649E+007
  869.215        406838.      -0.134175E+011   4848.60       0.407713E+007  0.210023E+007
  900.838        406838.      -0.132388E+011   4845.76       0.407187E+007  0.209392E+007
  932.462        406838.      -0.130593E+011   4842.90       0.406659E+007  0.208758E+007
  964.085        406838.      -0.128790E+011   4840.03       0.406127E+007  0.208120E+007
  995.708        406838.      -0.126980E+011   4837.13       0.405593E+007  0.207479E+007
  1027.33        406838.      -0.125164E+011   4834.22       0.405057E+007  0.206835E+007
  1058.95        406838.      -0.123342E+011   4831.30       0.404518E+007  0.206187E+007
  1090.58        406838.      -0.121515E+011   4828.37       0.403977E+007  0.205537E+007
  1122.20        406838.      -0.119683E+011   4825.42       0.403434E+007  0.204885E+007
  1153.82        406838.      -0.117847E+011   4822.46       0.402889E+007  0.204230E+007
  1185.45        406838.      -0.116006E+011   4819.48       0.402342E+007  0.203572E+007
  1217.07        406838.      -0.114162E+011   4816.50       0.401794E+007  0.202913E+007
  1248.69        406838.      -0.112315E+011   4813.50       0.401244E+007  0.202251E+007
  1280.32        406838.      -0.110464E+011   4810.49       0.400692E+007  0.201587E+007
  1311.94        406838.      -0.108611E+011   4807.48       0.400139E+007  0.200922E+007
  1343.56        406838.      -0.106755E+011   4804.45       0.399585E+007  0.200254E+007
  1375.18        406838.      -0.104897E+011   4801.41       0.399029E+007  0.199584E+007
  1406.81        406838.      -0.103036E+011   4798.37       0.398472E+007  0.198913E+007
  1438.43        406838.      -0.101173E+011   4795.31       0.397913E+007  0.198240E+007
  1470.05        406838.      -0.993085E+010   4792.25       0.397354E+007  0.197565E+007
  1501.68        406838.      -0.974421E+010   4789.18       0.396793E+007  0.196889E+007
  1533.30        406838.      -0.955741E+010   4786.10       0.396231E+007  0.196211E+007
  300.000        418804.      -0.150974E+011   4907.01       0.420420E+007  0.221363E+007
  331.623        418804.      -0.149841E+011   4905.26       0.420093E+007  0.220972E+007
  363.246        418804.      -0.148609E+011   4903.37       0.419738E+007  0.220546E+007
  394.869        418804.      -0.147294E+011   4901.34       0.419357E+007  0.220091E+007
  426.492        418804.      -0.145908E+011   4899.20       0.418956E+007  0.219611E+007
  458.115        418804.      -0.144461E+011   4896.96       0.418537E+007  0.219110E+007
  489.738        418804.      -0.142963E+011   4894.64       0.418103E+007  0.218590E+007
  521.362        418804.      -0.141421E+011   4892.25       0.417656E+007  0.218055E+007
  552.985        418804.      -0.139841E+011   4889.80       0.417197E+007  0.217506E+007
  584.608        418804.      -0.138229E+011   4887.30       0.416728E+007  0.216946E+007
  616.231        418804.      -0.136589E+011   4884.74       0.416251E+007  0.216375E+007
  647.854        418804.      -0.134923E+011   4882.15       0.415766E+007  0.215794E+007
  679.477        418804.      -0.133237E+011   4879.51       0.415275E+007  0.215206E+007
  711.100        418804.      -0.131531E+011   4876.84       0.414777E+007  0.214610E+007
  742.723        418804.      -0.129808E+011   4874.14       0.414274E+007  0.214008E+007
  774.346        418804.      -0.128070E+011   4871.42       0.413766E+007  0.213399E+007
  805.969        418804.      -0.126319E+011   4868.66       0.413254E+007  0.212785E+007
  837.592        418804.      -0.124557E+011   4865.89       0.412738E+007  0.212167E+007
  869.215        418804.      -0.122784E+011   4863.09       0.412218E+007  0.211544E+007
  900.838        418804.      -0.121001E+011   4860.27       0.411694E+007  0.210916E+007
  932.462        418804.      -0.119210E+011   4857.44       0.411168E+007  0.210285E+007
  964.085        418804.      -0.117410E+011   4854.59       0.410639E+007  0.209650E+007
  995.708        418804.      -0.115604E+011   4851.72       0.410107E+007  0.209012E+007
  1027.33        418804.      -0.113792E+011   4848.84       0.409573E+007  0.208371E+007
  1058.95        418804.      -0.111974E+011   4845.94       0.409037E+007  0.207727E+007
  1090.58        418804.      -0.110150E+011   4843.03       0.408498E+007  0.207080E+007
  1122.20        418804.      -0.108322E+011   4840.10       0.407957E+007  0.206431E+007
  1153.82        418804.      -0.106490E+011   4837.17       0.407415E+007  0.205779E+007
  1185.45        418804.      -0.104653E+011   4834.22       0.406871E+007  0.205125E+007
  1217.07        418804.      -0.102813E+011   4831.26       0.406325E+007  0.204469E+007
  1248.69        418804.      -0.100969E+011   4828.29       0.405777E+007  0.203810E+007
  1280.32        418804.      -0.991223E+010   4825.31       0.405228E+007  0.203150E+007
  1311.94        418804.      -0.972726E+010   4822.32       0.404677E+007  0.202487E+007
  1343.56        418804.      -0.954204E+010   4819.32       0.404125E+007  0.201823E+007
  1375.18        418804.      -0.935657E+010   4816.31       0.403572E+007  0.201157E+007
  1406.81        418804.      -0.917088E+010   4813.29       0.403017E+007  0.200489E+007
  1438.43        418804.      -0.898498E+010   4810.26       0.402462E+007  0.199819E+007
  1470.05        418804.      -0.879890E+010   4807.22       0.401904E+007  0.199148E+007
  1501.68        418804.      -0.861263E+010   4804.18       0.401346E+007  0.198475E+007
  1533.30        418804.      -0.842620E+010   4801.12       0.400787E+007  0.197800E+007
  300.000        430770.      -0.139459E+011   4920.98       0.424875E+007  0.222819E+007
  331.623        430770.      -0.138332E+011   4919.26       0.424550E+007  0.222431E+007
  363.246        430770.      -0.137106E+011   4917.38       0.424197E+007  0.222008E+007
  394.869        430770.      -0.135796E+011   4915.37       0.423819E+007  0.221556E+007
  426.492        430770.      -0.134415E+011   4913.25       0.423420E+007  0.221079E+007
  458.115        430770.      -0.132974E+011   4911.04       0.423003E+007  0.220581E+007
  489.738        430770.      -0.131481E+011   4908.74       0.422571E+007  0.220065E+007
  521.362        430770.      -0.129943E+011   4906.37       0.422126E+007  0.219533E+007
  552.985        430770.      -0.128368E+011   4903.94       0.421670E+007  0.218987E+007
  584.608        430770.      -0.126761E+011   4901.46       0.421204E+007  0.218429E+007
  616.231        430770.      -0.125125E+011   4898.93       0.420729E+007  0.217861E+007
  647.854        430770.      -0.123464E+011   4896.35       0.420246E+007  0.217284E+007
  679.477        430770.      -0.121781E+011   4893.74       0.419757E+007  0.216698E+007
  711.100        430770.      -0.120079E+011   4891.10       0.419261E+007  0.216106E+007
  742.723        430770.      -0.118361E+011   4888.42       0.418760E+007  0.215506E+007
  774.346        430770.      -0.116627E+011   4885.72       0.418255E+007  0.214901E+007
  805.969        430770.      -0.114880E+011   4882.99       0.417745E+007  0.214290E+007
  837.592        430770.      -0.113121E+011   4880.23       0.417231E+007  0.213674E+007
  869.215        430770.      -0.111352E+011   4877.46       0.416713E+007  0.213054E+007
  900.838        430770.      -0.109573E+011   4874.67       0.416192E+007  0.212430E+007
  932.462        430770.      -0.107786E+011   4871.86       0.415668E+007  0.211802E+007
  964.085        430770.      -0.105990E+011   4869.03       0.415141E+007  0.211170E+007
  995.708        430770.      -0.104188E+011   4866.18       0.414612E+007  0.210535E+007
  1027.33        430770.      -0.102379E+011   4863.33       0.414080E+007  0.209897E+007
  1058.95        430770.      -0.100565E+011   4860.45       0.413546E+007  0.209256E+007
  1090.58        430770.      -0.987449E+010   4857.57       0.413010E+007  0.208613E+007
  1122.20        430770.      -0.969203E+010   4854.67       0.412471E+007  0.207967E+007
  1153.82        430770.      -0.950914E+010   4851.75       0.411931E+007  0.207318E+007
  1185.45        430770.      -0.932584E+010   4848.83       0.411389E+007  0.206667E+007
  1217.07        430770.      -0.914217E+010   4845.90       0.410846E+007  0.206014E+007
  1248.69        430770.      -0.895817E+010   4842.95       0.410300E+007  0.205358E+007
  1280.32        430770.      -0.877385E+010   4840.00       0.409754E+007  0.204701E+007
  1311.94        430770.      -0.858925E+010   4837.03       0.409205E+007  0.204042E+007
  1343.56        430770.      -0.840438E+010   4834.05       0.408656E+007  0.203381E+007
  1375.18        430770.      -0.821928E+010   4831.07       0.408105E+007  0.202718E+007
  1406.81        430770.      -0.803394E+010   4828.08       0.407553E+007  0.202053E+007
  1438.43        430770.      -0.784841E+010   4825.07       0.406999E+007  0.201387E+007
  1470.05        430770.      -0.766268E+010   4822.06       0.406444E+007  0.200719E+007
  1501.68        430770.      -0.747678E+010   4819.04       0.405888E+007  0.200049E+007
  1533.30        430770.      -0.729071E+010   4816.02       0.405331E+007  0.199378E+007
  300.000        442735.      -0.127907E+011   4934.85       0.429321E+007  0.224267E+007
  331.623        442735.      -0.126786E+011   4933.14       0.428998E+007  0.223881E+007
  363.246        442735.      -0.125565E+011   4931.29       0.428647E+007  0.223461E+007
  394.869        442735.      -0.124261E+011   4929.30       0.428271E+007  0.223012E+007
  426.492        442735.      -0.122885E+011   4927.20       0.427875E+007  0.222538E+007
  458.115        442735.      -0.121448E+011   4925.01       0.427460E+007  0.222043E+007
  489.738        442735.      -0.119960E+011   4922.73       0.427031E+007  0.221530E+007
  521.362        442735.      -0.118428E+011   4920.38       0.426588E+007  0.221001E+007
  552.985        442735.      -0.116857E+011   4917.97       0.426134E+007  0.220458E+007
  584.608        442735.      -0.115254E+011   4915.51       0.425670E+007  0.219903E+007
  616.231        442735.      -0.113622E+011   4913.00       0.425197E+007  0.219338E+007
  647.854        442735.      -0.111965E+011   4910.45       0.424717E+007  0.218764E+007
  679.477        442735.      -0.110287E+011   4907.86       0.424230E+007  0.218181E+007
  711.100        442735.      -0.108589E+011   4905.24       0.423736E+007  0.217591E+007
  742.723        442735.      -0.106875E+011   4902.58       0.423238E+007  0.216995E+007
  774.346        442735.      -0.105145E+011   4899.90       0.422734E+007  0.216393E+007
  805.969        442735.      -0.103402E+011   4897.19       0.422227E+007  0.215785E+007
  837.592        442735.      -0.101647E+011   4894.47       0.421715E+007  0.215172E+007
  869.215        442735.      -0.998811E+010   4891.72       0.421199E+007  0.214555E+007
  900.838        442735.      -0.981059E+010   4888.95       0.420681E+007  0.213934E+007
  932.462        442735.      -0.963220E+010   4886.16       0.420159E+007  0.213309E+007
  964.085        442735.      -0.945303E+010   4883.35       0.419634E+007  0.212680E+007
  995.708        442735.      -0.927315E+010   4880.53       0.419107E+007  0.212048E+007
  1027.33        442735.      -0.909264E+010   4877.70       0.418577E+007  0.211413E+007
  1058.95        442735.      -0.891155E+010   4874.85       0.418045E+007  0.210775E+007
  1090.58        442735.      -0.872993E+010   4871.98       0.417511E+007  0.210135E+007
  1122.20        442735.      -0.854782E+010   4869.11       0.416975E+007  0.209492E+007
  1153.82        442735.      -0.836528E+010   4866.22       0.416437E+007  0.208846E+007
  1185.45        442735.      -0.818233E+010   4863.32       0.415898E+007  0.208198E+007
  1217.07        442735.      -0.799901E+010   4860.41       0.415356E+007  0.207548E+007
  1248.69        442735.      -0.781535E+010   4857.49       0.414813E+007  0.206896E+007
  1280.32        442735.      -0.763138E+010   4854.56       0.414269E+007  0.206242E+007
  1311.94        442735.      -0.744713E+010   4851.62       0.413723E+007  0.205586E+007
  1343.56        442735.      -0.726261E+010   4848.67       0.413176E+007  0.204928E+007
  1375.18        442735.      -0.707785E+010   4845.71       0.412627E+007  0.204268E+007
  1406.81        442735.      -0.689287E+010   4842.74       0.412077E+007  0.203606E+007
  1438.43        442735.      -0.670768E+010   4839.76       0.411526E+007  0.202943E+007
  1470.05        442735.      -0.652230E+010   4836.78       0.410974E+007  0.202278E+007
  1501.68        442735.      -0.633674E+010   4833.78       0.410420E+007  0.201612E+007
  1533.30        442735.      -0.615102E+010   4830.78       0.409866E+007  0.200944E+007
  300.000        454701.      -0.116318E+011   4948.61       0.433759E+007  0.225705E+007
  331.623        454701.      -0.115203E+011   4946.92       0.433438E+007  0.225322E+007
  363.246        454701.      -0.113988E+011   4945.08       0.433089E+007  0.224905E+007
  394.869        454701.      -0.112688E+011   4943.12       0.432716E+007  0.224459E+007
  426.492        454701.      -0.111317E+011   4941.04       0.432322E+007  0.223988E+007
  458.115        454701.      -0.109886E+011   4938.86       0.431909E+007  0.223496E+007
  489.738        454701.      -0.108402E+011   4936.61       0.431482E+007  0.222985E+007
  521.362        454701.      -0.106875E+011   4934.28       0.431042E+007  0.222459E+007
  552.985        454701.      -0.105309E+011   4931.90       0.430590E+007  0.221920E+007
  584.608        454701.      -0.103710E+011   4929.45       0.430128E+007  0.221368E+007
  616.231        454701.      -0.102082E+011   4926.97       0.429657E+007  0.220806E+007
  647.854        454701.      -0.100429E+011   4924.43       0.429179E+007  0.220234E+007
  679.477        454701.      -0.987548E+010   4921.87       0.428694E+007  0.219655E+007
  711.100        454701.      -0.970610E+010   4919.27       0.428203E+007  0.219068E+007
  742.723        454701.      -0.953502E+010   4916.63       0.427707E+007  0.218474E+007
  774.346        454701.      -0.936243E+010   4913.97       0.427205E+007  0.217875E+007
  805.969        454701.      -0.918850E+010   4911.29       0.426700E+007  0.217270E+007
  837.592        454701.      -0.901336E+010   4908.58       0.426190E+007  0.216660E+007
  869.215        454701.      -0.883716E+010   4905.85       0.425677E+007  0.216046E+007
  900.838        454701.      -0.865999E+010   4903.11       0.425160E+007  0.215428E+007
  932.462        454701.      -0.848196E+010   4900.34       0.424640E+007  0.214806E+007
  964.085        454701.      -0.830314E+010   4897.56       0.424118E+007  0.214180E+007
  995.708        454701.      -0.812362E+010   4894.76       0.423593E+007  0.213551E+007
  1027.33        454701.      -0.794345E+010   4891.95       0.423065E+007  0.212919E+007
  1058.95        454701.      -0.776270E+010   4889.12       0.422536E+007  0.212284E+007
  1090.58        454701.      -0.758142E+010   4886.28       0.422004E+007  0.211647E+007
  1122.20        454701.      -0.739966E+010   4883.43       0.421470E+007  0.211006E+007
  1153.82        454701.      -0.721745E+010   4880.57       0.420934E+007  0.210364E+007
  1185.45        454701.      -0.703484E+010   4877.69       0.420397E+007  0.209719E+007
  1217.07        454701.      -0.685186E+010   4874.80       0.419858E+007  0.209072E+007
  1248.69        454701.      -0.666854E+010   4871.91       0.419317E+007  0.208423E+007
  1280.32        454701.      -0.648491E+010   4869.00       0.418775E+007  0.207772E+007
  1311.94        454701.      -0.630099E+010   4866.08       0.418231E+007  0.207119E+007
  1343.56        454701.      -0.611681E+010   4863.16       0.417686E+007  0.206464E+007
  1375.18        454701.      -0.593238E+010   4860.22       0.417140E+007  0.205807E+007
  1406.81        454701.      -0.574773E+010   4857.28       0.416592E+007  0.205149E+007
  1438.43        454701.      -0.556288E+010   4854.32       0.416043E+007  0.204489E+007
  1470.05        454701.      -0.537783E+010   4851.36       0.415493E+007  0.203827E+007
  1501.68        454701.      -0.519261E+010   4848.39       0.414942E+007  0.203164E+007
  1533.30        454701.      -0.500723E+010   4845.42       0.414390E+007  0.202499E+007
  300.000        466667.      -0.104694E+011   4962.27       0.438188E+007  0.227135E+007
  331.623        466667.      -0.103583E+011   4960.60       0.437870E+007  0.226755E+007
  363.246        466667.      -0.102374E+011   4958.78       0.437524E+007  0.226341E+007
  394.869        466667.      -0.101079E+011   4956.83       0.437152E+007  0.225897E+007
  426.492        466667.      -0.997136E+010   4954.77       0.436760E+007  0.225429E+007
  458.115        466667.      -0.982868E+010   4952.62       0.436350E+007  0.224940E+007
  489.738        466667.      -0.968080E+010   4950.38       0.435925E+007  0.224432E+007
  521.362        466667.      -0.952847E+010   4948.08       0.435487E+007  0.223909E+007
  552.985        466667.      -0.937231E+010   4945.71       0.435037E+007  0.223372E+007
  584.608        466667.      -0.921283E+010   4943.29       0.434577E+007  0.222824E+007
  616.231        466667.      -0.905048E+010   4940.82       0.434109E+007  0.222264E+007
  647.854        466667.      -0.888562E+010   4938.31       0.433633E+007  0.221696E+007
  679.477        466667.      -0.871855E+010   4935.77       0.433150E+007  0.221119E+007
  711.100        466667.      -0.854956E+010   4933.18       0.432661E+007  0.220535E+007
  742.723        466667.      -0.837885E+010   4930.57       0.432166E+007  0.219944E+007
  774.346        466667.      -0.820662E+010   4927.94       0.431667E+007  0.219348E+007
  805.969        466667.      -0.803305E+010   4925.27       0.431164E+007  0.218746E+007
  837.592        466667.      -0.785828E+010   4922.59       0.430656E+007  0.218139E+007
  869.215        466667.      -0.768243E+010   4919.88       0.430145E+007  0.217528E+007
  900.838        466667.      -0.750561E+010   4917.16       0.429630E+007  0.216912E+007
  932.462        466667.      -0.732792E+010   4914.41       0.429113E+007  0.216293E+007
  964.085        466667.      -0.714944E+010   4911.65       0.428593E+007  0.215670E+007
  995.708        466667.      -0.697026E+010   4908.88       0.428070E+007  0.215044E+007
  1027.33        466667.      -0.679042E+010   4906.09       0.427544E+007  0.214415E+007
  1058.95        466667.      -0.661001E+010   4903.28       0.427017E+007  0.213783E+007
  1090.58        466667.      -0.642906E+010   4900.47       0.426487E+007  0.213148E+007
  1122.20        466667.      -0.624763E+010   4897.64       0.425955E+007  0.212511E+007
  1153.82        466667.      -0.606575E+010   4894.80       0.425422E+007  0.211871E+007
  1185.45        466667.      -0.588346E+010   4891.94       0.424886E+007  0.211230E+007
  1217.07        466667.      -0.570081E+010   4889.08       0.424349E+007  0.210586E+007
  1248.69        466667.      -0.551781E+010   4886.21       0.423811E+007  0.209939E+007
  1280.32        466667.      -0.533451E+010   4883.32       0.423271E+007  0.209291E+007
  1311.94        466667.      -0.515091E+010   4880.43       0.422729E+007  0.208641E+007
  1343.56        466667.      -0.496705E+010   4877.53       0.422187E+007  0.207990E+007
  1375.18        466667.      -0.478295E+010   4874.62       0.421643E+007  0.207336E+007
  1406.81        466667.      -0.459862E+010   4871.70       0.421097E+007  0.206681E+007
  1438.43        466667.      -0.441409E+010   4868.77       0.420551E+007  0.206024E+007
  1470.05        466667.      -0.422937E+010   4865.83       0.420003E+007  0.205365E+007
  1501.68        466667.      -0.404447E+010   4862.88       0.419454E+007  0.204705E+007
  1533.30        466667.      -0.385942E+010   4859.93       0.418904E+007  0.204043E+007
