|6.6.6
primRef_quadrant6_1.tab                                                                             
           2
T(K)    
   300.00000000000000     
   31.623076923076923     
          40
P(bar)  
   933334.00000000000     
   11965.794871794871     
          40
           6
T(K)           P(bar)         mode           rho,kg/m3      Ks,bar         Gs,bar        
  300.000        933334.       0.372467E+011   5448.40       0.599741E+007  0.279111E+007
  331.623        933334.       0.372585E+011   5433.55       0.604477E+007  0.277378E+007
  363.246        933334.       0.373440E+011   5428.90       0.605421E+007  0.276697E+007
  394.869        933334.       0.374588E+011   5427.47       0.605112E+007  0.276337E+007
  426.492        933334.       0.375814E+011   5425.95       0.604782E+007  0.275953E+007
  458.115        933334.       0.377107E+011   5424.34       0.604433E+007  0.275549E+007
  489.738        933334.       0.378458E+011   5422.65       0.604069E+007  0.275125E+007
  521.362        933334.       0.379859E+011   5420.90       0.603690E+007  0.274686E+007
  552.985        933334.       0.381304E+011   5419.10       0.603300E+007  0.274233E+007
  584.608        933334.       0.382787E+011   5417.24       0.602899E+007  0.273767E+007
  616.231        933334.       0.384303E+011   5415.35       0.602489E+007  0.273291E+007
  647.854        933334.       0.385848E+011   5413.41       0.602071E+007  0.272806E+007
  679.477        933334.       0.387418E+011   5411.44       0.601646E+007  0.272311E+007
  711.100        933334.       0.389012E+011   5409.44       0.601214E+007  0.271810E+007
  742.723        933334.       0.390625E+011   5407.41       0.600777E+007  0.271301E+007
  774.346        933334.       0.392257E+011   5405.36       0.600334E+007  0.270787E+007
  805.969        933334.       0.393904E+011   5403.28       0.599887E+007  0.270267E+007
  837.592        933334.       0.395566E+011   5401.18       0.599436E+007  0.269742E+007
  869.215        933334.       0.397240E+011   5399.07       0.598981E+007  0.269213E+007
  900.838        933334.       0.398926E+011   5396.94       0.598522E+007  0.268680E+007
  932.462        933334.       0.400622E+011   5394.79       0.598061E+007  0.268142E+007
  964.085        933334.       0.402327E+011   5392.63       0.597596E+007  0.267602E+007
  995.708        933334.       0.404041E+011   5390.46       0.597129E+007  0.267058E+007
  1027.33        933334.       0.405763E+011   5388.27       0.596660E+007  0.266511E+007
  1058.95        933334.       0.407491E+011   5386.07       0.596188E+007  0.265962E+007
  1090.58        933334.       0.409226E+011   5383.86       0.595715E+007  0.265410E+007
  1122.20        933334.       0.410967E+011   5381.65       0.595239E+007  0.264855E+007
  1153.82        933334.       0.412713E+011   5379.42       0.594762E+007  0.264299E+007
  1185.45        933334.       0.414464E+011   5377.18       0.594283E+007  0.263740E+007
  1217.07        933334.       0.416219E+011   5374.93       0.593802E+007  0.263179E+007
  1248.69        933334.       0.417978E+011   5372.68       0.593320E+007  0.262617E+007
  1280.32        933334.       0.419741E+011   5370.42       0.592837E+007  0.262052E+007
  1311.94        933334.       0.421507E+011   5368.15       0.592352E+007  0.261487E+007
  1343.56        933334.       0.423276E+011   5365.88       0.591866E+007  0.260919E+007
  1375.18        933334.       0.425048E+011   5363.60       0.591379E+007  0.260350E+007
  1406.81        933334.       0.426823E+011   5361.31       0.590891E+007  0.259780E+007
  1438.43        933334.       0.428601E+011   5359.02       0.590402E+007  0.259208E+007
  1470.05        933334.       0.430380E+011   5356.72       0.589912E+007  0.258635E+007
  1501.68        933334.       0.432161E+011   5354.41       0.589421E+007  0.258061E+007
  1533.30        933334.       0.433945E+011   5352.10       0.588929E+007  0.257485E+007
  300.000        945300.       0.386553E+011   5481.99       0.595725E+007  0.282920E+007
  331.623        945300.       0.387053E+011   5473.56       0.598034E+007  0.281819E+007
  363.246        945300.       0.387579E+011   5463.64       0.600830E+007  0.280536E+007
  394.869        945300.       0.388090E+011   5451.82       0.604297E+007  0.279024E+007
  426.492        945300.       0.388536E+011   5437.46       0.608704E+007  0.277211E+007
  458.115        945300.       0.389781E+011   5435.11       0.608637E+007  0.276724E+007
  489.738        945300.       0.391129E+011   5433.43       0.608274E+007  0.276302E+007
  521.362        945300.       0.392528E+011   5431.69       0.607897E+007  0.275864E+007
  552.985        945300.       0.393971E+011   5429.90       0.607508E+007  0.275413E+007
  584.608        945300.       0.395452E+011   5428.06       0.607108E+007  0.274949E+007
  616.231        945300.       0.396966E+011   5426.17       0.606699E+007  0.274475E+007
  647.854        945300.       0.398509E+011   5424.24       0.606282E+007  0.273990E+007
  679.477        945300.       0.400078E+011   5422.28       0.605858E+007  0.273498E+007
  711.100        945300.       0.401670E+011   5420.29       0.605427E+007  0.272998E+007
  742.723        945300.       0.403282E+011   5418.27       0.604991E+007  0.272491E+007
  774.346        945300.       0.404912E+011   5416.23       0.604549E+007  0.271978E+007
  805.969        945300.       0.406558E+011   5414.17       0.604103E+007  0.271460E+007
  837.592        945300.       0.408218E+011   5412.08       0.603653E+007  0.270937E+007
  869.215        945300.       0.409891E+011   5409.98       0.603199E+007  0.270409E+007
  900.838        945300.       0.411576E+011   5407.86       0.602741E+007  0.269877E+007
  932.462        945300.       0.413271E+011   5405.72       0.602281E+007  0.269342E+007
  964.085        945300.       0.414975E+011   5403.57       0.601817E+007  0.268803E+007
  995.708        945300.       0.416688E+011   5401.41       0.601351E+007  0.268260E+007
  1027.33        945300.       0.418408E+011   5399.23       0.600883E+007  0.267715E+007
  1058.95        945300.       0.420136E+011   5397.04       0.600412E+007  0.267167E+007
  1090.58        945300.       0.421870E+011   5394.85       0.599939E+007  0.266617E+007
  1122.20        945300.       0.423609E+011   5392.64       0.599465E+007  0.266064E+007
  1153.82        945300.       0.425354E+011   5390.42       0.598988E+007  0.265509E+007
  1185.45        945300.       0.427104E+011   5388.20       0.598510E+007  0.264952E+007
  1217.07        945300.       0.428858E+011   5385.96       0.598031E+007  0.264392E+007
  1248.69        945300.       0.430617E+011   5383.72       0.597550E+007  0.263832E+007
  1280.32        945300.       0.432379E+011   5381.47       0.597067E+007  0.263269E+007
  1311.94        945300.       0.434144E+011   5379.21       0.596584E+007  0.262705E+007
  1343.56        945300.       0.435912E+011   5376.95       0.596099E+007  0.262139E+007
  1375.18        945300.       0.437684E+011   5374.68       0.595613E+007  0.261571E+007
  1406.81        945300.       0.439458E+011   5372.40       0.595126E+007  0.261002E+007
  1438.43        945300.       0.441234E+011   5370.12       0.594637E+007  0.260432E+007
  1470.05        945300.       0.443013E+011   5367.83       0.594148E+007  0.259861E+007
  1501.68        945300.       0.444793E+011   5365.54       0.593658E+007  0.259288E+007
  1533.30        945300.       0.446576E+011   5363.24       0.593168E+007  0.258714E+007
  300.000        957266.       0.399946E+011   5503.83       0.595998E+007  0.285600E+007
  331.623        957266.       0.400587E+011   5497.83       0.597408E+007  0.284745E+007
  363.246        957266.       0.401295E+011   5491.03       0.599040E+007  0.283782E+007
  394.869        957266.       0.402047E+011   5483.29       0.600961E+007  0.282695E+007
  426.492        957266.       0.402818E+011   5474.42       0.603259E+007  0.281462E+007
  458.115        957266.       0.403580E+011   5464.14       0.606055E+007  0.280049E+007
  489.738        957266.       0.404298E+011   5452.07       0.609522E+007  0.278408E+007
  521.362        957266.       0.405218E+011   5442.43       0.612099E+007  0.277038E+007
  552.985        957266.       0.406659E+011   5440.65       0.611711E+007  0.276588E+007
  584.608        957266.       0.408137E+011   5438.81       0.611312E+007  0.276126E+007
  616.231        957266.       0.409650E+011   5436.94       0.610904E+007  0.275653E+007
  647.854        957266.       0.411191E+011   5435.02       0.610488E+007  0.275170E+007
  679.477        957266.       0.412759E+011   5433.07       0.610065E+007  0.274679E+007
  711.100        957266.       0.414349E+011   5431.09       0.609635E+007  0.274181E+007
  742.723        957266.       0.415960E+011   5429.08       0.609200E+007  0.273675E+007
  774.346        957266.       0.417588E+011   5427.05       0.608760E+007  0.273164E+007
  805.969        957266.       0.419233E+011   5425.00       0.608315E+007  0.272648E+007
  837.592        957266.       0.420891E+011   5422.92       0.607865E+007  0.272126E+007
  869.215        957266.       0.422563E+011   5420.83       0.607412E+007  0.271600E+007
  900.838        957266.       0.424247E+011   5418.72       0.606956E+007  0.271069E+007
  932.462        957266.       0.425940E+011   5416.59       0.606496E+007  0.270535E+007
  964.085        957266.       0.427643E+011   5414.46       0.606034E+007  0.269998E+007
  995.708        957266.       0.429355E+011   5412.30       0.605569E+007  0.269457E+007
  1027.33        957266.       0.431075E+011   5410.14       0.605101E+007  0.268913E+007
  1058.95        957266.       0.432801E+011   5407.96       0.604631E+007  0.268367E+007
  1090.58        957266.       0.434534E+011   5405.77       0.604160E+007  0.267818E+007
  1122.20        957266.       0.436273E+011   5403.58       0.603686E+007  0.267267E+007
  1153.82        957266.       0.438017E+011   5401.37       0.603210E+007  0.266713E+007
  1185.45        957266.       0.439766E+011   5399.15       0.602733E+007  0.266158E+007
  1217.07        957266.       0.441519E+011   5396.93       0.602255E+007  0.265600E+007
  1248.69        957266.       0.443276E+011   5394.70       0.601775E+007  0.265041E+007
  1280.32        957266.       0.445037E+011   5392.46       0.601293E+007  0.264480E+007
  1311.94        957266.       0.446802E+011   5390.22       0.600810E+007  0.263917E+007
  1343.56        957266.       0.448570E+011   5387.96       0.600326E+007  0.263352E+007
  1375.18        957266.       0.450340E+011   5385.70       0.599841E+007  0.262787E+007
  1406.81        957266.       0.452113E+011   5383.44       0.599355E+007  0.262219E+007
  1438.43        957266.       0.453889E+011   5381.17       0.598868E+007  0.261651E+007
  1470.05        957266.       0.455667E+011   5378.89       0.598380E+007  0.261081E+007
  1501.68        957266.       0.457447E+011   5376.61       0.597891E+007  0.260510E+007
  1533.30        957266.       0.459228E+011   5374.32       0.597401E+007  0.259938E+007
  300.000        969231.       0.413089E+011   5521.20       0.597870E+007  0.287833E+007
  331.623        969231.       0.413801E+011   5516.46       0.598822E+007  0.287108E+007
  363.246        969231.       0.414596E+011   5511.18       0.599893E+007  0.286305E+007
  394.869        969231.       0.415457E+011   5505.32       0.601115E+007  0.285418E+007
  426.492        969231.       0.416365E+011   5498.79       0.602529E+007  0.284439E+007
  458.115        969231.       0.417303E+011   5491.50       0.604187E+007  0.283354E+007
  489.738        969231.       0.418251E+011   5483.31       0.606155E+007  0.282146E+007
  521.362        969231.       0.419188E+011   5474.01       0.608522E+007  0.280789E+007
  552.985        969231.       0.420090E+011   5463.33       0.611411E+007  0.279247E+007
  584.608        969231.       0.420926E+011   5450.89       0.614992E+007  0.277468E+007
  616.231        969231.       0.422353E+011   5447.65       0.615105E+007  0.276825E+007
  647.854        969231.       0.423893E+011   5445.75       0.614690E+007  0.276344E+007
  679.477        969231.       0.425459E+011   5443.81       0.614268E+007  0.275855E+007
  711.100        969231.       0.427048E+011   5441.84       0.613839E+007  0.275358E+007
  742.723        969231.       0.428657E+011   5439.84       0.613405E+007  0.274855E+007
  774.346        969231.       0.430284E+011   5437.82       0.612966E+007  0.274345E+007
  805.969        969231.       0.431927E+011   5435.77       0.612521E+007  0.273830E+007
  837.592        969231.       0.433585E+011   5433.71       0.612073E+007  0.273309E+007
  869.215        969231.       0.435255E+011   5431.63       0.611621E+007  0.272785E+007
  900.838        969231.       0.436938E+011   5429.53       0.611166E+007  0.272256E+007
  932.462        969231.       0.438630E+011   5427.41       0.610707E+007  0.271724E+007
  964.085        969231.       0.440332E+011   5425.28       0.610245E+007  0.271188E+007
  995.708        969231.       0.442043E+011   5423.14       0.609781E+007  0.270648E+007
  1027.33        969231.       0.443761E+011   5420.99       0.609315E+007  0.270106E+007
  1058.95        969231.       0.445487E+011   5418.82       0.608846E+007  0.269561E+007
  1090.58        969231.       0.447219E+011   5416.64       0.608375E+007  0.269014E+007
  1122.20        969231.       0.448956E+011   5414.46       0.607902E+007  0.268464E+007
  1153.82        969231.       0.450699E+011   5412.26       0.607428E+007  0.267912E+007
  1185.45        969231.       0.452447E+011   5410.06       0.606952E+007  0.267358E+007
  1217.07        969231.       0.454200E+011   5407.84       0.606474E+007  0.266802E+007
  1248.69        969231.       0.455956E+011   5405.62       0.605995E+007  0.266244E+007
  1280.32        969231.       0.457717E+011   5403.40       0.605514E+007  0.265685E+007
  1311.94        969231.       0.459480E+011   5401.16       0.605033E+007  0.265123E+007
  1343.56        969231.       0.461247E+011   5398.92       0.604550E+007  0.264561E+007
  1375.18        969231.       0.463017E+011   5396.67       0.604065E+007  0.263996E+007
  1406.81        969231.       0.464789E+011   5394.42       0.603580E+007  0.263431E+007
  1438.43        969231.       0.466564E+011   5392.16       0.603094E+007  0.262864E+007
  1470.05        969231.       0.468341E+011   5389.89       0.602607E+007  0.262295E+007
  1501.68        969231.       0.470121E+011   5387.62       0.602119E+007  0.261726E+007
  1533.30        969231.       0.471902E+011   5385.34       0.601630E+007  0.261155E+007
  300.000        981197.       0.426121E+011   5536.37       0.600509E+007  0.289836E+007
  331.623        981197.       0.426876E+011   5532.40       0.601184E+007  0.289194E+007
  363.246        981197.       0.427722E+011   5528.03       0.601927E+007  0.288487E+007
  394.869        981197.       0.428643E+011   5523.23       0.602757E+007  0.287716E+007
  426.492        981197.       0.429625E+011   5517.99       0.603695E+007  0.286877E+007
  458.115        981197.       0.430654E+011   5512.25       0.604770E+007  0.285966E+007
  489.738        981197.       0.431713E+011   5505.96       0.606016E+007  0.284974E+007
  521.362        981197.       0.432791E+011   5499.02       0.607474E+007  0.283891E+007
  552.985        981197.       0.433870E+011   5491.33       0.609198E+007  0.282701E+007
  584.608        981197.       0.434936E+011   5482.73       0.611259E+007  0.281382E+007
  616.231        981197.       0.435970E+011   5473.02       0.613749E+007  0.279906E+007
  647.854        981197.       0.436950E+011   5461.92       0.616794E+007  0.278233E+007
  679.477        981197.       0.438180E+011   5454.49       0.618467E+007  0.277026E+007
  711.100        981197.       0.439767E+011   5452.53       0.618039E+007  0.276530E+007
  742.723        981197.       0.441374E+011   5450.54       0.617606E+007  0.276028E+007
  774.346        981197.       0.443000E+011   5448.53       0.617167E+007  0.275520E+007
  805.969        981197.       0.444642E+011   5446.50       0.616724E+007  0.275006E+007
  837.592        981197.       0.446298E+011   5444.44       0.616277E+007  0.274488E+007
  869.215        981197.       0.447968E+011   5442.37       0.615826E+007  0.273965E+007
  900.838        981197.       0.449649E+011   5440.28       0.615371E+007  0.273437E+007
  932.462        981197.       0.451340E+011   5438.18       0.614913E+007  0.272906E+007
  964.085        981197.       0.453041E+011   5436.06       0.614453E+007  0.272372E+007
  995.708        981197.       0.454751E+011   5433.93       0.613990E+007  0.271834E+007
  1027.33        981197.       0.456468E+011   5431.78       0.613524E+007  0.271294E+007
  1058.95        981197.       0.458193E+011   5429.63       0.613056E+007  0.270750E+007
  1090.58        981197.       0.459924E+011   5427.46       0.612586E+007  0.270204E+007
  1122.20        981197.       0.461660E+011   5425.28       0.612114E+007  0.269656E+007
  1153.82        981197.       0.463403E+011   5423.10       0.611641E+007  0.269106E+007
  1185.45        981197.       0.465150E+011   5420.90       0.611166E+007  0.268553E+007
  1217.07        981197.       0.466901E+011   5418.70       0.610689E+007  0.267999E+007
  1248.69        981197.       0.468657E+011   5416.49       0.610211E+007  0.267442E+007
  1280.32        981197.       0.470417E+011   5414.28       0.609731E+007  0.266884E+007
  1311.94        981197.       0.472179E+011   5412.05       0.609250E+007  0.266325E+007
  1343.56        981197.       0.473946E+011   5409.82       0.608768E+007  0.265763E+007
  1375.18        981197.       0.475715E+011   5407.58       0.608285E+007  0.265201E+007
  1406.81        981197.       0.477486E+011   5405.34       0.607801E+007  0.264636E+007
  1438.43        981197.       0.479260E+011   5403.09       0.607315E+007  0.264071E+007
  1470.05        981197.       0.481037E+011   5400.83       0.606829E+007  0.263504E+007
  1501.68        981197.       0.482815E+011   5398.57       0.606342E+007  0.262936E+007
  1533.30        981197.       0.484595E+011   5396.31       0.605854E+007  0.262367E+007
  300.000        993163.       0.439101E+011   5550.28       0.603574E+007  0.291703E+007
  331.623        993163.       0.439884E+011   5546.85       0.604061E+007  0.291118E+007
  363.246        993163.       0.440763E+011   5543.08       0.604588E+007  0.290477E+007
  394.869        993163.       0.441723E+011   5538.99       0.605165E+007  0.289782E+007
  426.492        993163.       0.442752E+011   5534.56       0.605806E+007  0.289032E+007
  458.115        993163.       0.443835E+011   5529.77       0.606529E+007  0.288227E+007
  489.738        993163.       0.444961E+011   5524.60       0.607353E+007  0.287364E+007
  521.362        993163.       0.446117E+011   5519.00       0.608304E+007  0.286437E+007
  552.985        993163.       0.447292E+011   5512.92       0.609410E+007  0.285440E+007
  584.608        993163.       0.448476E+011   5506.29       0.610707E+007  0.284361E+007
  616.231        993163.       0.449656E+011   5499.00       0.612241E+007  0.283187E+007
  647.854        993163.       0.450819E+011   5490.95       0.614068E+007  0.281899E+007
  679.477        993163.       0.451952E+011   5481.96       0.616262E+007  0.280474E+007
  711.100        993163.       0.453036E+011   5471.82       0.618920E+007  0.278877E+007
  742.723        993163.       0.454111E+011   5461.19       0.621802E+007  0.277197E+007
  774.346        993163.       0.455736E+011   5459.19       0.621365E+007  0.276690E+007
  805.969        993163.       0.457376E+011   5457.17       0.620922E+007  0.276178E+007
  837.592        993163.       0.459031E+011   5455.12       0.620476E+007  0.275661E+007
  869.215        993163.       0.460700E+011   5453.06       0.620026E+007  0.275139E+007
  900.838        993163.       0.462379E+011   5450.98       0.619572E+007  0.274614E+007
  932.462        993163.       0.464070E+011   5448.89       0.619115E+007  0.274084E+007
  964.085        993163.       0.465770E+011   5446.78       0.618656E+007  0.273551E+007
  995.708        993163.       0.467478E+011   5444.66       0.618194E+007  0.273015E+007
  1027.33        993163.       0.469195E+011   5442.52       0.617729E+007  0.272476E+007
  1058.95        993163.       0.470918E+011   5440.38       0.617262E+007  0.271934E+007
  1090.58        993163.       0.472648E+011   5438.22       0.616793E+007  0.271390E+007
  1122.20        993163.       0.474384E+011   5436.06       0.616322E+007  0.270843E+007
  1153.82        993163.       0.476126E+011   5433.88       0.615849E+007  0.270294E+007
  1185.45        993163.       0.477872E+011   5431.70       0.615375E+007  0.269743E+007
  1217.07        993163.       0.479623E+011   5429.51       0.614899E+007  0.269190E+007
  1248.69        993163.       0.481378E+011   5427.31       0.614422E+007  0.268635E+007
  1280.32        993163.       0.483136E+011   5425.10       0.613943E+007  0.268078E+007
  1311.94        993163.       0.484899E+011   5422.89       0.613463E+007  0.267520E+007
  1343.56        993163.       0.486664E+011   5420.66       0.612982E+007  0.266960E+007
  1375.18        993163.       0.488432E+011   5418.44       0.612500E+007  0.266399E+007
  1406.81        993163.       0.490203E+011   5416.20       0.612016E+007  0.265836E+007
  1438.43        993163.       0.491977E+011   5413.97       0.611532E+007  0.265272E+007
  1470.05        993163.       0.493752E+011   5411.72       0.611047E+007  0.264707E+007
  1501.68        993163.       0.495530E+011   5409.47       0.610561E+007  0.264141E+007
  1533.30        993163.       0.497310E+011   5407.22       0.610074E+007  0.263573E+007
  300.000       0.100513E+007  0.452057E+011   5563.41       0.606896E+007  0.293479E+007
  331.623       0.100513E+007  0.452860E+011   5560.37       0.607247E+007  0.292937E+007
  363.246       0.100513E+007  0.453763E+011   5557.05       0.607617E+007  0.292344E+007
  394.869       0.100513E+007  0.454751E+011   5553.46       0.608015E+007  0.291703E+007
  426.492       0.100513E+007  0.455812E+011   5549.60       0.608450E+007  0.291016E+007
  458.115       0.100513E+007  0.456933E+011   5545.47       0.608934E+007  0.290283E+007
  489.738       0.100513E+007  0.458103E+011   5541.05       0.609481E+007  0.289505E+007
  521.362       0.100513E+007  0.459310E+011   5536.32       0.610108E+007  0.288679E+007
  552.985       0.100513E+007  0.460546E+011   5531.25       0.610831E+007  0.287803E+007
  584.608       0.100513E+007  0.461801E+011   5525.80       0.611674E+007  0.286869E+007
  616.231       0.100513E+007  0.463065E+011   5519.93       0.612662E+007  0.285873E+007
  647.854       0.100513E+007  0.464330E+011   5513.56       0.613827E+007  0.284802E+007
  679.477       0.100513E+007  0.465587E+011   5506.61       0.615206E+007  0.283645E+007
  711.100       0.100513E+007  0.466825E+011   5498.99       0.616846E+007  0.282385E+007
  742.723       0.100513E+007  0.468033E+011   5490.56       0.618809E+007  0.281000E+007
  774.346       0.100513E+007  0.469198E+011   5481.15       0.621173E+007  0.279464E+007
  805.969       0.100513E+007  0.470302E+011   5470.54       0.624041E+007  0.277738E+007
  837.592       0.100513E+007  0.471784E+011   5465.75       0.624671E+007  0.276829E+007
  869.215       0.100513E+007  0.473451E+011   5463.70       0.624222E+007  0.276309E+007
  900.838       0.100513E+007  0.475130E+011   5461.63       0.623769E+007  0.275784E+007
  932.462       0.100513E+007  0.476819E+011   5459.55       0.623313E+007  0.275256E+007
  964.085       0.100513E+007  0.478518E+011   5457.45       0.622854E+007  0.274725E+007
  995.708       0.100513E+007  0.480226E+011   5455.33       0.622393E+007  0.274190E+007
  1027.33       0.100513E+007  0.481941E+011   5453.21       0.621929E+007  0.273653E+007
  1058.95       0.100513E+007  0.483664E+011   5451.08       0.621463E+007  0.273112E+007
  1090.58       0.100513E+007  0.485393E+011   5448.93       0.620995E+007  0.272569E+007
  1122.20       0.100513E+007  0.487128E+011   5446.77       0.620525E+007  0.272024E+007
  1153.82       0.100513E+007  0.488869E+011   5444.61       0.620053E+007  0.271477E+007
  1185.45       0.100513E+007  0.490614E+011   5442.44       0.619580E+007  0.270927E+007
  1217.07       0.100513E+007  0.492364E+011   5440.25       0.619105E+007  0.270375E+007
  1248.69       0.100513E+007  0.494118E+011   5438.07       0.618629E+007  0.269822E+007
  1280.32       0.100513E+007  0.495876E+011   5435.87       0.618151E+007  0.269267E+007
  1311.94       0.100513E+007  0.497638E+011   5433.67       0.617672E+007  0.268710E+007
  1343.56       0.100513E+007  0.499402E+011   5431.45       0.617192E+007  0.268152E+007
  1375.18       0.100513E+007  0.501170E+011   5429.24       0.616710E+007  0.267592E+007
  1406.81       0.100513E+007  0.502940E+011   5427.02       0.616228E+007  0.267031E+007
  1438.43       0.100513E+007  0.504713E+011   5424.79       0.615744E+007  0.266469E+007
  1470.05       0.100513E+007  0.506488E+011   5422.55       0.615260E+007  0.265905E+007
  1501.68       0.100513E+007  0.508265E+011   5420.31       0.614775E+007  0.265340E+007
  1533.30       0.100513E+007  0.510044E+011   5418.07       0.614288E+007  0.264774E+007
  300.000       0.101709E+007  0.465004E+011   5576.01       0.610385E+007  0.295191E+007
  331.623       0.101709E+007  0.465823E+011   5573.28       0.610629E+007  0.294683E+007
  363.246       0.101709E+007  0.466745E+011   5570.31       0.610878E+007  0.294127E+007
  394.869       0.101709E+007  0.467755E+011   5567.11       0.611139E+007  0.293526E+007
  426.492       0.101709E+007  0.468841E+011   5563.69       0.611419E+007  0.292885E+007
  458.115       0.101709E+007  0.469991E+011   5560.05       0.611728E+007  0.292205E+007
  489.738       0.101709E+007  0.471193E+011   5556.18       0.612075E+007  0.291488E+007
  521.362       0.101709E+007  0.472438E+011   5552.07       0.612472E+007  0.290733E+007
  552.985       0.101709E+007  0.473717E+011   5547.71       0.612933E+007  0.289939E+007
  584.608       0.101709E+007  0.475020E+011   5543.07       0.613472E+007  0.289104E+007
  616.231       0.101709E+007  0.476341E+011   5538.12       0.614106E+007  0.288223E+007
  647.854       0.101709E+007  0.477671E+011   5532.82       0.614856E+007  0.287291E+007
  679.477       0.101709E+007  0.479004E+011   5527.13       0.615743E+007  0.286300E+007
  711.100       0.101709E+007  0.480333E+011   5520.99       0.616795E+007  0.285241E+007
  742.723       0.101709E+007  0.481649E+011   5514.33       0.618044E+007  0.284102E+007
  774.346       0.101709E+007  0.482946E+011   5507.07       0.619533E+007  0.282868E+007
  805.969       0.101709E+007  0.484212E+011   5499.09       0.621310E+007  0.281520E+007
  837.592       0.101709E+007  0.485438E+011   5490.26       0.623442E+007  0.280033E+007
  869.215       0.101709E+007  0.486610E+011   5480.40       0.626013E+007  0.278377E+007
  900.838       0.101709E+007  0.487900E+011   5472.23       0.627962E+007  0.276950E+007
  932.462       0.101709E+007  0.489588E+011   5470.15       0.627507E+007  0.276424E+007
  964.085       0.101709E+007  0.491286E+011   5468.06       0.627049E+007  0.275894E+007
  995.708       0.101709E+007  0.492993E+011   5465.96       0.626588E+007  0.275360E+007
  1027.33       0.101709E+007  0.494707E+011   5463.85       0.626126E+007  0.274824E+007
  1058.95       0.101709E+007  0.496429E+011   5461.72       0.625660E+007  0.274285E+007
  1090.58       0.101709E+007  0.498157E+011   5459.59       0.625193E+007  0.273744E+007
  1122.20       0.101709E+007  0.499892E+011   5457.44       0.624724E+007  0.273200E+007
  1153.82       0.101709E+007  0.501631E+011   5455.29       0.624253E+007  0.272654E+007
  1185.45       0.101709E+007  0.503376E+011   5453.12       0.623781E+007  0.272106E+007
  1217.07       0.101709E+007  0.505125E+011   5450.95       0.623307E+007  0.271556E+007
  1248.69       0.101709E+007  0.506879E+011   5448.77       0.622831E+007  0.271004E+007
  1280.32       0.101709E+007  0.508636E+011   5446.58       0.622354E+007  0.270450E+007
  1311.94       0.101709E+007  0.510396E+011   5444.39       0.621876E+007  0.269895E+007
  1343.56       0.101709E+007  0.512160E+011   5442.19       0.621397E+007  0.269338E+007
  1375.18       0.101709E+007  0.513927E+011   5439.98       0.620916E+007  0.268780E+007
  1406.81       0.101709E+007  0.515697E+011   5437.77       0.620435E+007  0.268220E+007
  1438.43       0.101709E+007  0.517469E+011   5435.55       0.619952E+007  0.267659E+007
  1470.05       0.101709E+007  0.519243E+011   5433.33       0.619469E+007  0.267097E+007
  1501.68       0.101709E+007  0.521020E+011   5431.10       0.618984E+007  0.266533E+007
  1533.30       0.101709E+007  0.522798E+011   5428.87       0.618499E+007  0.265969E+007
  300.000       0.102906E+007  0.477989E+011   5588.68       0.614191E+007  0.296794E+007
  331.623       0.102906E+007  0.478822E+011   5586.22       0.614347E+007  0.296314E+007
  363.246       0.102906E+007  0.479722E+011   5583.08       0.614290E+007  0.295846E+007
  394.869       0.102906E+007  0.480751E+011   5580.21       0.614440E+007  0.295277E+007
  426.492       0.102906E+007  0.481859E+011   5577.15       0.614596E+007  0.294671E+007
  458.115       0.102906E+007  0.483032E+011   5573.90       0.614765E+007  0.294031E+007
  489.738       0.102906E+007  0.484261E+011   5570.47       0.614956E+007  0.293360E+007
  521.362       0.102906E+007  0.485536E+011   5566.85       0.615179E+007  0.292657E+007
  552.985       0.102906E+007  0.486848E+011   5563.02       0.615444E+007  0.291924E+007
  584.608       0.102906E+007  0.488188E+011   5558.98       0.615761E+007  0.291160E+007
  616.231       0.102906E+007  0.489550E+011   5554.70       0.616144E+007  0.290361E+007
  647.854       0.102906E+007  0.490927E+011   5550.15       0.616606E+007  0.289526E+007
  679.477       0.102906E+007  0.492313E+011   5545.32       0.617162E+007  0.288648E+007
  711.100       0.102906E+007  0.493703E+011   5540.16       0.617829E+007  0.287723E+007
  742.723       0.102906E+007  0.495089E+011   5534.63       0.618628E+007  0.286743E+007
  774.346       0.102906E+007  0.496467E+011   5528.69       0.619584E+007  0.285699E+007
  805.969       0.102906E+007  0.497831E+011   5522.28       0.620725E+007  0.284580E+007
  837.592       0.102906E+007  0.499172E+011   5515.32       0.622086E+007  0.283372E+007
  869.215       0.102906E+007  0.500484E+011   5507.72       0.623711E+007  0.282057E+007
  900.838       0.102906E+007  0.501758E+011   5499.35       0.625654E+007  0.280614E+007
  932.462       0.102906E+007  0.502982E+011   5490.09       0.627988E+007  0.279015E+007
  964.085       0.102906E+007  0.504144E+011   5479.72       0.630803E+007  0.277225E+007
  995.708       0.102906E+007  0.505779E+011   5476.53       0.630779E+007  0.276525E+007
  1027.33       0.102906E+007  0.507492E+011   5474.43       0.630317E+007  0.275991E+007
  1058.95       0.102906E+007  0.509213E+011   5472.31       0.629853E+007  0.275453E+007
  1090.58       0.102906E+007  0.510941E+011   5470.19       0.629387E+007  0.274913E+007
  1122.20       0.102906E+007  0.512674E+011   5468.05       0.628919E+007  0.274371E+007
  1153.82       0.102906E+007  0.514413E+011   5465.91       0.628449E+007  0.273826E+007
  1185.45       0.102906E+007  0.516157E+011   5463.76       0.627977E+007  0.273279E+007
  1217.07       0.102906E+007  0.517905E+011   5461.59       0.627504E+007  0.272731E+007
  1248.69       0.102906E+007  0.519658E+011   5459.42       0.627029E+007  0.272180E+007
  1280.32       0.102906E+007  0.521415E+011   5457.25       0.626553E+007  0.271628E+007
  1311.94       0.102906E+007  0.523175E+011   5455.06       0.626076E+007  0.271074E+007
  1343.56       0.102906E+007  0.524938E+011   5452.87       0.625597E+007  0.270519E+007
  1375.18       0.102906E+007  0.526704E+011   5450.68       0.625118E+007  0.269962E+007
  1406.81       0.102906E+007  0.528473E+011   5448.48       0.624637E+007  0.269404E+007
  1438.43       0.102906E+007  0.530245E+011   5446.27       0.624155E+007  0.268844E+007
  1470.05       0.102906E+007  0.532018E+011   5444.05       0.623673E+007  0.268283E+007
  1501.68       0.102906E+007  0.533794E+011   5441.84       0.623189E+007  0.267721E+007
  1533.30       0.102906E+007  0.535572E+011   5439.61       0.622705E+007  0.267158E+007
  300.000       0.104103E+007  0.490944E+011   5600.63       0.617869E+007  0.298418E+007
  331.623       0.104103E+007  0.491790E+011   5598.40       0.617947E+007  0.297959E+007
  363.246       0.104103E+007  0.492743E+011   5595.98       0.618011E+007  0.297455E+007
  394.869       0.104103E+007  0.493789E+011   5593.39       0.618065E+007  0.296912E+007
  426.492       0.104103E+007  0.494916E+011   5590.64       0.618114E+007  0.296334E+007
  458.115       0.104103E+007  0.496111E+011   5587.73       0.618166E+007  0.295725E+007
  489.738       0.104103E+007  0.497363E+011   5584.67       0.618228E+007  0.295088E+007
  521.362       0.104103E+007  0.498664E+011   5581.45       0.618309E+007  0.294426E+007
  552.985       0.104103E+007  0.500003E+011   5578.06       0.618417E+007  0.293740E+007
  584.608       0.104103E+007  0.501336E+011   5574.03       0.618353E+007  0.293091E+007
  616.231       0.104103E+007  0.502732E+011   5570.27       0.618543E+007  0.292354E+007
  647.854       0.104103E+007  0.504146E+011   5566.30       0.618789E+007  0.291590E+007
  679.477       0.104103E+007  0.505572E+011   5562.10       0.619102E+007  0.290796E+007
  711.100       0.104103E+007  0.507007E+011   5557.66       0.619496E+007  0.289967E+007
  742.723       0.104103E+007  0.508444E+011   5552.93       0.619982E+007  0.289099E+007
  774.346       0.104103E+007  0.509879E+011   5547.90       0.620578E+007  0.288186E+007
  805.969       0.104103E+007  0.511307E+011   5542.53       0.621301E+007  0.287221E+007
  837.592       0.104103E+007  0.512724E+011   5536.76       0.622173E+007  0.286195E+007
  869.215       0.104103E+007  0.514123E+011   5530.56       0.623220E+007  0.285097E+007
  900.838       0.104103E+007  0.515500E+011   5523.85       0.624473E+007  0.283914E+007
  932.462       0.104103E+007  0.516848E+011   5516.56       0.625970E+007  0.282631E+007
  964.085       0.104103E+007  0.518159E+011   5508.58       0.627758E+007  0.281227E+007
  995.708       0.104103E+007  0.519424E+011   5499.79       0.629897E+007  0.279679E+007
  1027.33       0.104103E+007  0.520632E+011   5490.04       0.632465E+007  0.277955E+007
  1058.95       0.104103E+007  0.522017E+011   5482.86       0.634042E+007  0.276616E+007
  1090.58       0.104103E+007  0.523743E+011   5480.74       0.633576E+007  0.276077E+007
  1122.20       0.104103E+007  0.525476E+011   5478.61       0.633109E+007  0.275536E+007
  1153.82       0.104103E+007  0.527214E+011   5476.48       0.632640E+007  0.274993E+007
  1185.45       0.104103E+007  0.528957E+011   5474.34       0.632169E+007  0.274448E+007
  1217.07       0.104103E+007  0.530705E+011   5472.18       0.631697E+007  0.273901E+007
  1248.69       0.104103E+007  0.532457E+011   5470.03       0.631223E+007  0.273352E+007
  1280.32       0.104103E+007  0.534213E+011   5467.86       0.630748E+007  0.272801E+007
  1311.94       0.104103E+007  0.535972E+011   5465.69       0.630271E+007  0.272248E+007
  1343.56       0.104103E+007  0.537735E+011   5463.51       0.629794E+007  0.271695E+007
  1375.18       0.104103E+007  0.539500E+011   5461.32       0.629315E+007  0.271139E+007
  1406.81       0.104103E+007  0.541269E+011   5459.13       0.628835E+007  0.270582E+007
  1438.43       0.104103E+007  0.543040E+011   5456.93       0.628354E+007  0.270024E+007
  1470.05       0.104103E+007  0.544813E+011   5454.73       0.627872E+007  0.269465E+007
  1501.68       0.104103E+007  0.546588E+011   5452.52       0.627390E+007  0.268904E+007
  1533.30       0.104103E+007  0.548365E+011   5450.30       0.626906E+007  0.268342E+007
  300.000       0.105299E+007  0.503910E+011   5612.37       0.621597E+007  0.300010E+007
  331.623       0.105299E+007  0.504769E+011   5610.35       0.621605E+007  0.299569E+007
  363.246       0.105299E+007  0.505737E+011   5608.17       0.621590E+007  0.299084E+007
  394.869       0.105299E+007  0.506801E+011   5605.85       0.621556E+007  0.298560E+007
  426.492       0.105299E+007  0.507946E+011   5603.38       0.621510E+007  0.298003E+007
  458.115       0.105299E+007  0.509162E+011   5600.79       0.621458E+007  0.297419E+007
  489.738       0.105299E+007  0.510437E+011   5598.05       0.621407E+007  0.296811E+007
  521.362       0.105299E+007  0.511761E+011   5595.18       0.621365E+007  0.296182E+007
  552.985       0.105299E+007  0.513126E+011   5592.17       0.621340E+007  0.295532E+007
  584.608       0.105299E+007  0.514524E+011   5589.00       0.621339E+007  0.294864E+007
  616.231       0.105299E+007  0.515948E+011   5585.67       0.621372E+007  0.294176E+007
  647.854       0.105299E+007  0.517393E+011   5582.17       0.621445E+007  0.293468E+007
  679.477       0.105299E+007  0.518853E+011   5578.48       0.621569E+007  0.292737E+007
  711.100       0.105299E+007  0.520324E+011   5574.59       0.621751E+007  0.291982E+007
  742.723       0.105299E+007  0.521763E+011   5570.02       0.621794E+007  0.291261E+007
  774.346       0.105299E+007  0.523241E+011   5565.66       0.622127E+007  0.290445E+007
  805.969       0.105299E+007  0.524718E+011   5561.04       0.622552E+007  0.289592E+007
  837.592       0.105299E+007  0.526188E+011   5556.13       0.623084E+007  0.288695E+007
  869.215       0.105299E+007  0.527649E+011   5550.88       0.623740E+007  0.287748E+007
  900.838       0.105299E+007  0.529095E+011   5545.27       0.624540E+007  0.286742E+007
  932.462       0.105299E+007  0.530523E+011   5539.25       0.625505E+007  0.285667E+007
  964.085       0.105299E+007  0.531928E+011   5532.76       0.626665E+007  0.284511E+007
  995.708       0.105299E+007  0.533303E+011   5525.72       0.628052E+007  0.283258E+007
  1027.33       0.105299E+007  0.534643E+011   5518.06       0.629709E+007  0.281892E+007
  1058.95       0.105299E+007  0.535940E+011   5509.67       0.631686E+007  0.280390E+007
  1090.58       0.105299E+007  0.537184E+011   5500.41       0.634052E+007  0.278724E+007
  1122.20       0.105299E+007  0.538364E+011   5490.12       0.636890E+007  0.276860E+007
  1153.82       0.105299E+007  0.540034E+011   5487.00       0.636827E+007  0.276155E+007
  1185.45       0.105299E+007  0.541776E+011   5484.87       0.636357E+007  0.275611E+007
  1217.07       0.105299E+007  0.543523E+011   5482.72       0.635885E+007  0.275065E+007
  1248.69       0.105299E+007  0.545275E+011   5480.57       0.635412E+007  0.274518E+007
  1280.32       0.105299E+007  0.547030E+011   5478.42       0.634938E+007  0.273968E+007
  1311.94       0.105299E+007  0.548789E+011   5476.25       0.634463E+007  0.273417E+007
  1343.56       0.105299E+007  0.550551E+011   5474.08       0.633986E+007  0.272865E+007
  1375.18       0.105299E+007  0.552316E+011   5471.91       0.633508E+007  0.272311E+007
  1406.81       0.105299E+007  0.554083E+011   5469.73       0.633029E+007  0.271755E+007
  1438.43       0.105299E+007  0.555854E+011   5467.54       0.632549E+007  0.271199E+007
  1470.05       0.105299E+007  0.557626E+011   5465.34       0.632068E+007  0.270641E+007
  1501.68       0.105299E+007  0.559401E+011   5463.15       0.631586E+007  0.270082E+007
  1533.30       0.105299E+007  0.561178E+011   5460.94       0.631103E+007  0.269521E+007
  300.000       0.106496E+007  0.516892E+011   5623.96       0.625357E+007  0.301573E+007
  331.623       0.106496E+007  0.517765E+011   5622.16       0.625297E+007  0.301147E+007
  363.246       0.106496E+007  0.518749E+011   5620.21       0.625206E+007  0.300676E+007
  394.869       0.106496E+007  0.519831E+011   5618.14       0.625089E+007  0.300167E+007
  426.492       0.106496E+007  0.520996E+011   5615.95       0.624952E+007  0.299628E+007
  458.115       0.106496E+007  0.522233E+011   5613.65       0.624803E+007  0.299064E+007
  489.738       0.106496E+007  0.523530E+011   5611.22       0.624648E+007  0.298478E+007
  521.362       0.106496E+007  0.524878E+011   5608.68       0.624495E+007  0.297875E+007
  552.985       0.106496E+007  0.526267E+011   5606.00       0.624351E+007  0.297256E+007
  584.608       0.106496E+007  0.527690E+011   5603.20       0.624224E+007  0.296622E+007
  616.231       0.106496E+007  0.529142E+011   5600.25       0.624121E+007  0.295974E+007
  647.854       0.106496E+007  0.530614E+011   5597.15       0.624049E+007  0.295311E+007
  679.477       0.106496E+007  0.532104E+011   5593.88       0.624014E+007  0.294632E+007
  711.100       0.106496E+007  0.533606E+011   5590.45       0.624025E+007  0.293935E+007
  742.723       0.106496E+007  0.535116E+011   5586.83       0.624090E+007  0.293218E+007
  774.346       0.106496E+007  0.536630E+011   5583.01       0.624216E+007  0.292478E+007
  805.969       0.106496E+007  0.538145E+011   5578.97       0.624412E+007  0.291710E+007
  837.592       0.106496E+007  0.539658E+011   5574.70       0.624690E+007  0.290912E+007
  869.215       0.106496E+007  0.541127E+011   5569.72       0.624851E+007  0.290142E+007
  900.838       0.106496E+007  0.542625E+011   5564.91       0.625327E+007  0.289265E+007
  932.462       0.106496E+007  0.544111E+011   5559.78       0.625924E+007  0.288339E+007
  964.085       0.106496E+007  0.545581E+011   5554.30       0.626658E+007  0.287356E+007
  995.708       0.106496E+007  0.547031E+011   5548.43       0.627552E+007  0.286306E+007
  1027.33       0.106496E+007  0.548457E+011   5542.12       0.628630E+007  0.285177E+007
  1058.95       0.106496E+007  0.549854E+011   5535.31       0.629923E+007  0.283956E+007
  1090.58       0.106496E+007  0.551216E+011   5527.91       0.631466E+007  0.282626E+007
  1122.20       0.106496E+007  0.552537E+011   5519.85       0.633307E+007  0.281168E+007
  1153.82       0.106496E+007  0.553809E+011   5511.00       0.635503E+007  0.279555E+007
  1185.45       0.106496E+007  0.555021E+011   5501.22       0.638127E+007  0.277756E+007
  1217.07       0.106496E+007  0.556361E+011   5493.21       0.640070E+007  0.276225E+007
  1248.69       0.106496E+007  0.558111E+011   5491.07       0.639598E+007  0.275679E+007
  1280.32       0.106496E+007  0.559866E+011   5488.93       0.639124E+007  0.275131E+007
  1311.94       0.106496E+007  0.561624E+011   5486.77       0.638650E+007  0.274581E+007
  1343.56       0.106496E+007  0.563385E+011   5484.61       0.638174E+007  0.274030E+007
  1375.18       0.106496E+007  0.565150E+011   5482.45       0.637697E+007  0.273477E+007
  1406.81       0.106496E+007  0.566917E+011   5480.27       0.637218E+007  0.272923E+007
  1438.43       0.106496E+007  0.568687E+011   5478.09       0.636739E+007  0.272368E+007
  1470.05       0.106496E+007  0.570459E+011   5475.91       0.636259E+007  0.271812E+007
  1501.68       0.106496E+007  0.572233E+011   5473.72       0.635778E+007  0.271254E+007
  1533.30       0.106496E+007  0.574009E+011   5471.53       0.635296E+007  0.270695E+007
  300.000       0.107692E+007  0.529893E+011   5635.45       0.629133E+007  0.303112E+007
  331.623       0.107692E+007  0.530782E+011   5633.86       0.629004E+007  0.302695E+007
  363.246       0.107692E+007  0.531784E+011   5632.16       0.628837E+007  0.302234E+007
  394.869       0.107692E+007  0.532886E+011   5630.35       0.628637E+007  0.301737E+007
  426.492       0.107692E+007  0.534072E+011   5628.43       0.628411E+007  0.301211E+007
  458.115       0.107692E+007  0.535331E+011   5626.41       0.628167E+007  0.300662E+007
  489.738       0.107692E+007  0.536652E+011   5624.29       0.627912E+007  0.300095E+007
  521.362       0.107692E+007  0.538024E+011   5622.05       0.627654E+007  0.299513E+007
  552.985       0.107692E+007  0.539438E+011   5619.71       0.627400E+007  0.298919E+007
  584.608       0.107692E+007  0.540887E+011   5617.23       0.627157E+007  0.298315E+007
  616.231       0.107692E+007  0.542364E+011   5614.64       0.626931E+007  0.297700E+007
  647.854       0.107692E+007  0.543864E+011   5611.90       0.626728E+007  0.297075E+007
  679.477       0.107692E+007  0.545381E+011   5609.02       0.626556E+007  0.296439E+007
  711.100       0.107692E+007  0.546912E+011   5605.99       0.626420E+007  0.295791E+007
  742.723       0.107692E+007  0.548452E+011   5602.79       0.626326E+007  0.295129E+007
  774.346       0.107692E+007  0.549998E+011   5599.42       0.626281E+007  0.294450E+007
  805.969       0.107692E+007  0.551546E+011   5595.87       0.626293E+007  0.293752E+007
  837.592       0.107692E+007  0.553094E+011   5592.12       0.626368E+007  0.293032E+007
  869.215       0.107692E+007  0.554639E+011   5588.15       0.626515E+007  0.292286E+007
  900.838       0.107692E+007  0.556179E+011   5583.95       0.626744E+007  0.291510E+007
  932.462       0.107692E+007  0.557709E+011   5579.50       0.627065E+007  0.290697E+007
  964.085       0.107692E+007  0.559228E+011   5574.78       0.627489E+007  0.289844E+007
  995.708       0.107692E+007  0.560733E+011   5569.75       0.628032E+007  0.288942E+007
  1027.33       0.107692E+007  0.562182E+011   5563.94       0.628498E+007  0.288051E+007
  1058.95       0.107692E+007  0.563649E+011   5558.20       0.629328E+007  0.287028E+007
  1090.58       0.107692E+007  0.565091E+011   5552.04       0.630334E+007  0.285929E+007
  1122.20       0.107692E+007  0.566504E+011   5545.41       0.631543E+007  0.284740E+007
  1153.82       0.107692E+007  0.567883E+011   5538.24       0.632989E+007  0.283447E+007
  1185.45       0.107692E+007  0.569222E+011   5530.45       0.634712E+007  0.282031E+007
  1217.07       0.107692E+007  0.570514E+011   5521.94       0.636763E+007  0.280467E+007
  1248.69       0.107692E+007  0.571751E+011   5512.58       0.639207E+007  0.278729E+007
  1280.32       0.107692E+007  0.572921E+011   5502.21       0.642126E+007  0.276779E+007
  1311.94       0.107692E+007  0.574478E+011   5497.24       0.642832E+007  0.275740E+007
  1343.56       0.107692E+007  0.576239E+011   5495.09       0.642357E+007  0.275190E+007
  1375.18       0.107692E+007  0.578003E+011   5492.93       0.641881E+007  0.274639E+007
  1406.81       0.107692E+007  0.579769E+011   5490.77       0.641404E+007  0.274086E+007
  1438.43       0.107692E+007  0.581538E+011   5488.60       0.640925E+007  0.273532E+007
  1470.05       0.107692E+007  0.583310E+011   5486.43       0.640446E+007  0.272977E+007
  1501.68       0.107692E+007  0.585083E+011   5484.25       0.639966E+007  0.272421E+007
  1533.30       0.107692E+007  0.586859E+011   5482.06       0.639486E+007  0.271863E+007
  300.000       0.108889E+007  0.542918E+011   5646.88       0.632910E+007  0.304625E+007
  331.623       0.108889E+007  0.543825E+011   5645.53       0.632709E+007  0.304215E+007
  363.246       0.108889E+007  0.544848E+011   5644.08       0.632463E+007  0.303760E+007
  394.869       0.108889E+007  0.545972E+011   5642.53       0.632177E+007  0.303271E+007
  426.492       0.108889E+007  0.547182E+011   5640.90       0.631859E+007  0.302754E+007
  458.115       0.108889E+007  0.548466E+011   5639.18       0.631519E+007  0.302217E+007
  489.738       0.108889E+007  0.549812E+011   5637.36       0.631165E+007  0.301665E+007
  521.362       0.108889E+007  0.551209E+011   5635.43       0.630803E+007  0.301100E+007
  552.985       0.108889E+007  0.552649E+011   5633.40       0.630442E+007  0.300528E+007
  584.608       0.108889E+007  0.554125E+011   5631.26       0.630087E+007  0.299948E+007
  616.231       0.108889E+007  0.555629E+011   5629.00       0.629745E+007  0.299361E+007
  647.854       0.108889E+007  0.557155E+011   5626.61       0.629422E+007  0.298769E+007
  679.477       0.108889E+007  0.558700E+011   5624.08       0.629124E+007  0.298170E+007
  711.100       0.108889E+007  0.560259E+011   5621.42       0.628855E+007  0.297564E+007
  742.723       0.108889E+007  0.561828E+011   5618.60       0.628621E+007  0.296948E+007
  774.346       0.108889E+007  0.563403E+011   5615.63       0.628428E+007  0.296322E+007
  805.969       0.108889E+007  0.564982E+011   5612.50       0.628281E+007  0.295683E+007
  837.592       0.108889E+007  0.566562E+011   5609.19       0.628186E+007  0.295029E+007
  869.215       0.108889E+007  0.568140E+011   5605.70       0.628149E+007  0.294356E+007
  900.838       0.108889E+007  0.569715E+011   5602.01       0.628178E+007  0.293661E+007
  932.462       0.108889E+007  0.571283E+011   5598.10       0.628280E+007  0.292941E+007
  964.085       0.108889E+007  0.572842E+011   5593.97       0.628463E+007  0.292190E+007
  995.708       0.108889E+007  0.574390E+011   5589.59       0.628738E+007  0.291404E+007
  1027.33       0.108889E+007  0.575925E+011   5584.94       0.629116E+007  0.290578E+007
  1058.95       0.108889E+007  0.577444E+011   5580.00       0.629609E+007  0.289704E+007
  1090.58       0.108889E+007  0.578944E+011   5574.73       0.630233E+007  0.288774E+007
  1122.20       0.108889E+007  0.580423E+011   5569.10       0.631005E+007  0.287782E+007
  1153.82       0.108889E+007  0.581838E+011   5562.64       0.631735E+007  0.286783E+007
  1185.45       0.108889E+007  0.583262E+011   5556.16       0.632869E+007  0.285629E+007
  1217.07       0.108889E+007  0.584653E+011   5549.18       0.634228E+007  0.284374E+007
  1248.69       0.108889E+007  0.586005E+011   5541.61       0.635849E+007  0.283000E+007
  1280.32       0.108889E+007  0.587312E+011   5533.38       0.637776E+007  0.281485E+007
  1311.94       0.108889E+007  0.588567E+011   5524.36       0.640066E+007  0.279803E+007
  1343.56       0.108889E+007  0.589759E+011   5514.43       0.642793E+007  0.277922E+007
  1375.18       0.108889E+007  0.590876E+011   5503.40       0.646047E+007  0.275801E+007
  1406.81       0.108889E+007  0.592640E+011   5501.22       0.645585E+007  0.275244E+007
  1438.43       0.108889E+007  0.594408E+011   5499.06       0.645107E+007  0.274691E+007
  1470.05       0.108889E+007  0.596179E+011   5496.89       0.644629E+007  0.274137E+007
  1501.68       0.108889E+007  0.597953E+011   5494.72       0.644150E+007  0.273582E+007
  1533.30       0.108889E+007  0.599728E+011   5492.55       0.643669E+007  0.273026E+007
  300.000       0.110086E+007  0.555971E+011   5658.31       0.636673E+007  0.306114E+007
  331.623       0.110086E+007  0.556900E+011   5657.21       0.636394E+007  0.305705E+007
  363.246       0.110086E+007  0.557947E+011   5656.03       0.636061E+007  0.305253E+007
  394.869       0.110086E+007  0.559097E+011   5654.78       0.635683E+007  0.304767E+007
  426.492       0.110086E+007  0.560335E+011   5653.45       0.635269E+007  0.304256E+007
  458.115       0.110086E+007  0.561646E+011   5652.03       0.634829E+007  0.303727E+007
  489.738       0.110086E+007  0.563020E+011   5650.53       0.634372E+007  0.303186E+007
  521.362       0.110086E+007  0.564446E+011   5648.93       0.633905E+007  0.302637E+007
  552.985       0.110086E+007  0.565914E+011   5647.22       0.633435E+007  0.302082E+007
  584.608       0.110086E+007  0.567417E+011   5645.41       0.632970E+007  0.301523E+007
  616.231       0.110086E+007  0.568950E+011   5643.48       0.632516E+007  0.300962E+007
  647.854       0.110086E+007  0.570505E+011   5641.42       0.632076E+007  0.300398E+007
  679.477       0.110086E+007  0.572078E+011   5639.24       0.631658E+007  0.299832E+007
  711.100       0.110086E+007  0.573665E+011   5636.93       0.631265E+007  0.299263E+007
  742.723       0.110086E+007  0.575262E+011   5634.47       0.630902E+007  0.298689E+007
  774.346       0.110086E+007  0.576866E+011   5631.88       0.630573E+007  0.298109E+007
  805.969       0.110086E+007  0.578475E+011   5629.13       0.630284E+007  0.297521E+007
  837.592       0.110086E+007  0.580085E+011   5626.22       0.630039E+007  0.296923E+007
  869.215       0.110086E+007  0.581694E+011   5623.14       0.629842E+007  0.296313E+007
  900.838       0.110086E+007  0.583301E+011   5619.89       0.629701E+007  0.295688E+007
  932.462       0.110086E+007  0.584902E+011   5616.45       0.629619E+007  0.295045E+007
  964.085       0.110086E+007  0.586497E+011   5612.81       0.629605E+007  0.294380E+007
  995.708       0.110086E+007  0.588082E+011   5608.96       0.629664E+007  0.293689E+007
  1027.33       0.110086E+007  0.589657E+011   5604.88       0.629805E+007  0.292969E+007
  1058.95       0.110086E+007  0.591218E+011   5600.56       0.630037E+007  0.292214E+007
  1090.58       0.110086E+007  0.592765E+011   5595.98       0.630370E+007  0.291418E+007
  1122.20       0.110086E+007  0.594294E+011   5591.11       0.630817E+007  0.290576E+007
  1153.82       0.110086E+007  0.595803E+011   5585.92       0.631392E+007  0.289679E+007
  1185.45       0.110086E+007  0.597289E+011   5580.39       0.632110E+007  0.288720E+007
  1217.07       0.110086E+007  0.598750E+011   5574.47       0.632992E+007  0.287688E+007
  1248.69       0.110086E+007  0.600181E+011   5568.13       0.634060E+007  0.286571E+007
  1280.32       0.110086E+007  0.601541E+011   5560.86       0.635130E+007  0.285427E+007
  1311.94       0.110086E+007  0.602901E+011   5553.48       0.636660E+007  0.284097E+007
  1343.56       0.110086E+007  0.604218E+011   5545.47       0.638478E+007  0.282631E+007
  1375.18       0.110086E+007  0.605484E+011   5536.74       0.640636E+007  0.281005E+007
  1406.81       0.110086E+007  0.606691E+011   5527.16       0.643198E+007  0.279190E+007
  1438.43       0.110086E+007  0.607828E+011   5516.59       0.646245E+007  0.277147E+007
  1470.05       0.110086E+007  0.609067E+011   5507.31       0.648808E+007  0.275293E+007
  1501.68       0.110086E+007  0.610840E+011   5505.15       0.648329E+007  0.274739E+007
  1533.30       0.110086E+007  0.612615E+011   5502.98       0.647850E+007  0.274184E+007
  300.000       0.111282E+007  0.569057E+011   5669.78       0.640405E+007  0.307575E+007
  331.623       0.111282E+007  0.570014E+011   5668.97       0.640037E+007  0.307163E+007
  363.246       0.111282E+007  0.571090E+011   5668.09       0.639608E+007  0.306708E+007
  394.869       0.111282E+007  0.572271E+011   5667.16       0.639129E+007  0.306222E+007
  426.492       0.111282E+007  0.573540E+011   5666.16       0.638610E+007  0.305714E+007
  458.115       0.111282E+007  0.574883E+011   5665.09       0.638063E+007  0.305190E+007
  489.738       0.111282E+007  0.576289E+011   5663.92       0.637497E+007  0.304658E+007
  521.362       0.111282E+007  0.577746E+011   5662.66       0.636920E+007  0.304120E+007
  552.985       0.111282E+007  0.579245E+011   5661.29       0.636339E+007  0.303580E+007
  584.608       0.111282E+007  0.580780E+011   5659.81       0.635761E+007  0.303041E+007
  616.231       0.111282E+007  0.582343E+011   5658.22       0.635192E+007  0.302502E+007
  647.854       0.111282E+007  0.583928E+011   5656.51       0.634637E+007  0.301965E+007
  679.477       0.111282E+007  0.585531E+011   5654.67       0.634100E+007  0.301428E+007
  711.100       0.111282E+007  0.587148E+011   5652.71       0.633586E+007  0.300893E+007
  742.723       0.111282E+007  0.588775E+011   5650.61       0.633098E+007  0.300356E+007
  774.346       0.111282E+007  0.590409E+011   5648.36       0.632642E+007  0.299818E+007
  805.969       0.111282E+007  0.592047E+011   5645.98       0.632220E+007  0.299276E+007
  837.592       0.111282E+007  0.593687E+011   5643.44       0.631836E+007  0.298729E+007
  869.215       0.111282E+007  0.595327E+011   5640.75       0.631495E+007  0.298175E+007
  900.838       0.111282E+007  0.596964E+011   5637.89       0.631201E+007  0.297611E+007
  932.462       0.111282E+007  0.598598E+011   5634.87       0.630959E+007  0.297035E+007
  964.085       0.111282E+007  0.600225E+011   5631.66       0.630773E+007  0.296444E+007
  995.708       0.111282E+007  0.601844E+011   5628.27       0.630649E+007  0.295835E+007
  1027.33       0.111282E+007  0.603453E+011   5624.68       0.630592E+007  0.295205E+007
  1058.95       0.111282E+007  0.605052E+011   5620.88       0.630611E+007  0.294549E+007
  1090.58       0.111282E+007  0.606637E+011   5616.85       0.630711E+007  0.293864E+007
  1122.20       0.111282E+007  0.608208E+011   5612.59       0.630902E+007  0.293144E+007
  1153.82       0.111282E+007  0.609762E+011   5608.06       0.631193E+007  0.292384E+007
  1185.45       0.111282E+007  0.611298E+011   5603.25       0.631596E+007  0.291579E+007
  1217.07       0.111282E+007  0.612812E+011   5598.13       0.632124E+007  0.290719E+007
  1248.69       0.111282E+007  0.614303E+011   5592.67       0.632793E+007  0.289798E+007
  1280.32       0.111282E+007  0.615767E+011   5586.84       0.633620E+007  0.288806E+007
  1311.94       0.111282E+007  0.617202E+011   5580.60       0.634626E+007  0.287730E+007
  1343.56       0.111282E+007  0.618603E+011   5573.89       0.635838E+007  0.286559E+007
  1375.18       0.111282E+007  0.619967E+011   5566.67       0.637286E+007  0.285275E+007
  1406.81       0.111282E+007  0.621249E+011   5558.41       0.638796E+007  0.283933E+007
  1438.43       0.111282E+007  0.622521E+011   5549.91       0.640838E+007  0.282364E+007
  1470.05       0.111282E+007  0.623737E+011   5540.62       0.643257E+007  0.280614E+007
  1501.68       0.111282E+007  0.624886E+011   5530.41       0.646127E+007  0.278646E+007
  1533.30       0.111282E+007  0.625958E+011   5519.10       0.649540E+007  0.276419E+007
  300.000       0.112479E+007  0.582186E+011   5681.37       0.644084E+007  0.309004E+007
  331.623       0.112479E+007  0.583176E+011   5680.89       0.643613E+007  0.308583E+007
  363.246       0.112479E+007  0.584288E+011   5680.36       0.643074E+007  0.308122E+007
  394.869       0.112479E+007  0.585505E+011   5679.79       0.642482E+007  0.307632E+007
  426.492       0.112479E+007  0.586811E+011   5679.16       0.641848E+007  0.307122E+007
  458.115       0.112479E+007  0.588191E+011   5678.45       0.641184E+007  0.306601E+007
  489.738       0.112479E+007  0.589633E+011   5677.65       0.640500E+007  0.306075E+007
  521.362       0.112479E+007  0.591126E+011   5676.76       0.639805E+007  0.305547E+007
  552.985       0.112479E+007  0.592661E+011   5675.76       0.639106E+007  0.305020E+007
  584.608       0.112479E+007  0.594230E+011   5674.64       0.638409E+007  0.304498E+007
  616.231       0.112479E+007  0.595826E+011   5673.41       0.637721E+007  0.303980E+007
  647.854       0.112479E+007  0.597445E+011   5672.05       0.637046E+007  0.303466E+007
  679.477       0.112479E+007  0.599081E+011   5670.57       0.636389E+007  0.302958E+007
  711.100       0.112479E+007  0.600730E+011   5668.95       0.635753E+007  0.302453E+007
  742.723       0.112479E+007  0.602389E+011   5667.21       0.635142E+007  0.301952E+007
  774.346       0.112479E+007  0.604054E+011   5665.32       0.634560E+007  0.301452E+007
  805.969       0.112479E+007  0.605724E+011   5663.29       0.634009E+007  0.300953E+007
  837.592       0.112479E+007  0.607395E+011   5661.12       0.633493E+007  0.300453E+007
  869.215       0.112479E+007  0.609066E+011   5658.79       0.633015E+007  0.299950E+007
  900.838       0.112479E+007  0.610734E+011   5656.32       0.632580E+007  0.299442E+007
  932.462       0.112479E+007  0.612399E+011   5653.68       0.632190E+007  0.298926E+007
  964.085       0.112479E+007  0.614058E+011   5650.87       0.631849E+007  0.298402E+007
  995.708       0.112479E+007  0.615710E+011   5647.90       0.631561E+007  0.297866E+007
  1027.33       0.112479E+007  0.617353E+011   5644.74       0.631332E+007  0.297315E+007
  1058.95       0.112479E+007  0.618985E+011   5641.39       0.631166E+007  0.296746E+007
  1090.58       0.112479E+007  0.620606E+011   5637.84       0.631068E+007  0.296155E+007
  1122.20       0.112479E+007  0.622214E+011   5634.08       0.631046E+007  0.295540E+007
  1153.82       0.112479E+007  0.623807E+011   5630.09       0.631106E+007  0.294896E+007
  1185.45       0.112479E+007  0.625383E+011   5625.87       0.631257E+007  0.294217E+007
  1217.07       0.112479E+007  0.626942E+011   5621.38       0.631507E+007  0.293499E+007
  1248.69       0.112479E+007  0.628480E+011   5616.62       0.631867E+007  0.292735E+007
  1280.32       0.112479E+007  0.629996E+011   5611.55       0.632351E+007  0.291918E+007
  1311.94       0.112479E+007  0.631488E+011   5606.16       0.632972E+007  0.291041E+007
  1343.56       0.112479E+007  0.632952E+011   5600.40       0.633747E+007  0.290093E+007
  1375.18       0.112479E+007  0.634386E+011   5594.24       0.634697E+007  0.289064E+007
  1406.81       0.112479E+007  0.635787E+011   5587.63       0.635844E+007  0.287941E+007
  1438.43       0.112479E+007  0.637150E+011   5580.52       0.637219E+007  0.286709E+007
  1470.05       0.112479E+007  0.638471E+011   5572.85       0.638854E+007  0.285349E+007
  1501.68       0.112479E+007  0.639743E+011   5564.52       0.640794E+007  0.283840E+007
  1533.30       0.112479E+007  0.640922E+011   5555.03       0.642875E+007  0.282230E+007
  300.000       0.113675E+007  0.595367E+011   5693.17       0.647681E+007  0.310395E+007
  331.623       0.113675E+007  0.596398E+011   5693.07       0.647089E+007  0.309960E+007
  363.246       0.113675E+007  0.597554E+011   5692.96       0.646424E+007  0.309487E+007
  394.869       0.113675E+007  0.598815E+011   5692.80       0.645702E+007  0.308988E+007
  426.492       0.113675E+007  0.600164E+011   5692.58       0.644938E+007  0.308474E+007
  458.115       0.113675E+007  0.601588E+011   5692.29       0.644143E+007  0.307952E+007
  489.738       0.113675E+007  0.603072E+011   5691.90       0.643329E+007  0.307429E+007
  521.362       0.113675E+007  0.604607E+011   5691.41       0.642504E+007  0.306909E+007
  552.985       0.113675E+007  0.606182E+011   5690.80       0.641677E+007  0.306395E+007
  584.608       0.113675E+007  0.607790E+011   5690.08       0.640854E+007  0.305888E+007
  616.231       0.113675E+007  0.609425E+011   5689.23       0.640039E+007  0.305389E+007
  647.854       0.113675E+007  0.611081E+011   5688.25       0.639238E+007  0.304899E+007
  679.477       0.113675E+007  0.612753E+011   5687.14       0.638455E+007  0.304417E+007
  711.100       0.113675E+007  0.614438E+011   5685.90       0.637693E+007  0.303942E+007
  742.723       0.113675E+007  0.616132E+011   5684.52       0.636955E+007  0.303474E+007
  774.346       0.113675E+007  0.617832E+011   5683.00       0.636245E+007  0.303011E+007
  805.969       0.113675E+007  0.619535E+011   5681.33       0.635565E+007  0.302553E+007
  837.592       0.113675E+007  0.621240E+011   5679.53       0.634918E+007  0.302097E+007
  869.215       0.113675E+007  0.622944E+011   5677.57       0.634306E+007  0.301642E+007
  900.838       0.113675E+007  0.624645E+011   5675.46       0.633733E+007  0.301186E+007
  932.462       0.113675E+007  0.626342E+011   5673.20       0.633202E+007  0.300728E+007
  964.085       0.113675E+007  0.628034E+011   5670.78       0.632715E+007  0.300265E+007
  995.708       0.113675E+007  0.629718E+011   5668.19       0.632276E+007  0.299796E+007
  1027.33       0.113675E+007  0.631394E+011   5665.43       0.631888E+007  0.299317E+007
  1058.95       0.113675E+007  0.633060E+011   5662.50       0.631555E+007  0.298826E+007
  1090.58       0.113675E+007  0.634715E+011   5659.38       0.631282E+007  0.298321E+007
  1122.20       0.113675E+007  0.636358E+011   5656.07       0.631074E+007  0.297799E+007
  1153.82       0.113675E+007  0.637987E+011   5652.56       0.630935E+007  0.297255E+007
  1185.45       0.113675E+007  0.639601E+011   5648.83       0.630872E+007  0.296687E+007
  1217.07       0.113675E+007  0.641198E+011   5644.88       0.630892E+007  0.296089E+007
  1248.69       0.113675E+007  0.642777E+011   5640.69       0.631002E+007  0.295458E+007
  1280.32       0.113675E+007  0.644337E+011   5636.24       0.631211E+007  0.294788E+007
  1311.94       0.113675E+007  0.645875E+011   5631.51       0.631529E+007  0.294073E+007
  1343.56       0.113675E+007  0.647389E+011   5626.48       0.631969E+007  0.293306E+007
  1375.18       0.113675E+007  0.648878E+011   5621.13       0.632544E+007  0.292479E+007
  1406.81       0.113675E+007  0.650339E+011   5615.42       0.633270E+007  0.291583E+007
  1438.43       0.113675E+007  0.651769E+011   5609.31       0.634165E+007  0.290608E+007
  1470.05       0.113675E+007  0.653165E+011   5602.78       0.635253E+007  0.289540E+007
  1501.68       0.113675E+007  0.654523E+011   5595.76       0.636559E+007  0.288365E+007
  1533.30       0.113675E+007  0.655838E+011   5588.19       0.638116E+007  0.287065E+007
  300.000       0.114872E+007  0.608616E+011   5705.30       0.651158E+007  0.311737E+007
  331.623       0.114872E+007  0.609700E+011   5705.67       0.650421E+007  0.311281E+007
  363.246       0.114872E+007  0.610909E+011   5706.03       0.649607E+007  0.310790E+007
  394.869       0.114872E+007  0.612222E+011   5706.36       0.648735E+007  0.310279E+007
  426.492       0.114872E+007  0.613624E+011   5706.62       0.647821E+007  0.309757E+007
  458.115       0.114872E+007  0.615099E+011   5706.80       0.646878E+007  0.309233E+007
  489.738       0.114872E+007  0.616633E+011   5706.87       0.645918E+007  0.308712E+007
  521.362       0.114872E+007  0.618216E+011   5706.83       0.644950E+007  0.308199E+007
  552.985       0.114872E+007  0.619838E+011   5706.67       0.643981E+007  0.307695E+007
  584.608       0.114872E+007  0.621492E+011   5706.37       0.643018E+007  0.307203E+007
  616.231       0.114872E+007  0.623171E+011   5705.95       0.642065E+007  0.306723E+007
  647.854       0.114872E+007  0.624869E+011   5705.38       0.641128E+007  0.306255E+007
  679.477       0.114872E+007  0.626583E+011   5704.68       0.640210E+007  0.305799E+007
  711.100       0.114872E+007  0.628308E+011   5703.83       0.639314E+007  0.305354E+007
  742.723       0.114872E+007  0.630042E+011   5702.85       0.638443E+007  0.304918E+007
  774.346       0.114872E+007  0.631780E+011   5701.71       0.637599E+007  0.304492E+007
  805.969       0.114872E+007  0.633521E+011   5700.43       0.636785E+007  0.304073E+007
  837.592       0.114872E+007  0.635262E+011   5699.00       0.636004E+007  0.303660E+007
  869.215       0.114872E+007  0.637002E+011   5697.43       0.635256E+007  0.303252E+007
  900.838       0.114872E+007  0.638739E+011   5695.70       0.634546E+007  0.302847E+007
  932.462       0.114872E+007  0.640472E+011   5693.81       0.633874E+007  0.302443E+007
  964.085       0.114872E+007  0.642198E+011   5691.77       0.633244E+007  0.302039E+007
  995.708       0.114872E+007  0.643917E+011   5689.57       0.632658E+007  0.301633E+007
  1027.33       0.114872E+007  0.645627E+011   5687.20       0.632119E+007  0.301222E+007
  1058.95       0.114872E+007  0.647327E+011   5684.66       0.631630E+007  0.300805E+007
  1090.58       0.114872E+007  0.649017E+011   5681.95       0.631194E+007  0.300379E+007
  1122.20       0.114872E+007  0.650694E+011   5679.06       0.630815E+007  0.299941E+007
  1153.82       0.114872E+007  0.652358E+011   5675.97       0.630498E+007  0.299489E+007
  1185.45       0.114872E+007  0.654007E+011   5672.70       0.630245E+007  0.299021E+007
  1217.07       0.114872E+007  0.655641E+011   5669.21       0.630064E+007  0.298531E+007
  1248.69       0.114872E+007  0.657258E+011   5665.51       0.629959E+007  0.298018E+007
  1280.32       0.114872E+007  0.658857E+011   5661.59       0.629937E+007  0.297476E+007
  1311.94       0.114872E+007  0.660436E+011   5657.41       0.630005E+007  0.296901E+007
  1343.56       0.114872E+007  0.661993E+011   5652.99       0.630172E+007  0.296287E+007
  1375.18       0.114872E+007  0.663528E+011   5648.28       0.630449E+007  0.295629E+007
  1406.81       0.114872E+007  0.665038E+011   5643.27       0.630845E+007  0.294921E+007
  1438.43       0.114872E+007  0.666521E+011   5637.95       0.631374E+007  0.294153E+007
  1470.05       0.114872E+007  0.667975E+011   5632.27       0.632051E+007  0.293317E+007
  1501.68       0.114872E+007  0.669396E+011   5626.20       0.632894E+007  0.292403E+007
  1533.30       0.114872E+007  0.670783E+011   5619.71       0.633925E+007  0.291399E+007
  300.000       0.116068E+007  0.621957E+011   5717.94       0.654459E+007  0.313017E+007
  331.623       0.116068E+007  0.623106E+011   5718.88       0.653546E+007  0.312532E+007
  363.246       0.116068E+007  0.624380E+011   5719.82       0.652554E+007  0.312019E+007
  394.869       0.116068E+007  0.625758E+011   5720.71       0.651506E+007  0.311491E+007
  426.492       0.116068E+007  0.627223E+011   5721.53       0.650418E+007  0.310958E+007
  458.115       0.116068E+007  0.628759E+011   5722.25       0.649305E+007  0.310429E+007
  489.738       0.116068E+007  0.630352E+011   5722.86       0.648178E+007  0.309909E+007
  521.362       0.116068E+007  0.631992E+011   5723.33       0.647047E+007  0.309401E+007
  552.985       0.116068E+007  0.633669E+011   5723.67       0.645919E+007  0.308908E+007
  584.608       0.116068E+007  0.635376E+011   5723.86       0.644799E+007  0.308431E+007
  616.231       0.116068E+007  0.637106E+011   5723.91       0.643694E+007  0.307970E+007
  647.854       0.116068E+007  0.638855E+011   5723.81       0.642606E+007  0.307524E+007
  679.477       0.116068E+007  0.640617E+011   5723.55       0.641541E+007  0.307094E+007
  711.100       0.116068E+007  0.642388E+011   5723.14       0.640499E+007  0.306679E+007
  742.723       0.116068E+007  0.644138E+011   5722.34       0.639562E+007  0.306279E+007
  774.346       0.116068E+007  0.645714E+011   5719.92       0.639135E+007  0.305898E+007
  805.969       0.116068E+007  0.647308E+011   5717.47       0.638703E+007  0.305513E+007
  837.592       0.116068E+007  0.648919E+011   5715.00       0.638267E+007  0.305123E+007
  869.215       0.116068E+007  0.650544E+011   5712.49       0.637826E+007  0.304729E+007
  900.838       0.116068E+007  0.652182E+011   5709.97       0.637382E+007  0.304332E+007
  932.462       0.116068E+007  0.653832E+011   5707.42       0.636934E+007  0.303931E+007
  964.085       0.116068E+007  0.655492E+011   5704.85       0.636483E+007  0.303527E+007
  995.708       0.116068E+007  0.657163E+011   5702.26       0.636029E+007  0.303119E+007
  1027.33       0.116068E+007  0.658842E+011   5699.66       0.635573E+007  0.302710E+007
  1058.95       0.116068E+007  0.660530E+011   5697.04       0.635113E+007  0.302297E+007
  1090.58       0.116068E+007  0.662224E+011   5694.41       0.634652E+007  0.301882E+007
  1122.20       0.116068E+007  0.663926E+011   5691.76       0.634189E+007  0.301465E+007
  1153.82       0.116068E+007  0.665633E+011   5689.10       0.633724E+007  0.301046E+007
  1185.45       0.116068E+007  0.667347E+011   5686.43       0.633256E+007  0.300625E+007
  1217.07       0.116068E+007  0.669065E+011   5683.75       0.632788E+007  0.300202E+007
  1248.69       0.116068E+007  0.670788E+011   5681.05       0.632317E+007  0.299777E+007
  1280.32       0.116068E+007  0.672515E+011   5678.35       0.631846E+007  0.299351E+007
  1311.94       0.116068E+007  0.674246E+011   5675.63       0.631372E+007  0.298922E+007
  1343.56       0.116068E+007  0.675981E+011   5672.91       0.630898E+007  0.298493E+007
  1375.18       0.116068E+007  0.677720E+011   5670.17       0.630422E+007  0.298061E+007
  1406.81       0.116068E+007  0.679461E+011   5667.43       0.629946E+007  0.297629E+007
  1438.43       0.116068E+007  0.681205E+011   5664.68       0.629468E+007  0.297195E+007
  1470.05       0.116068E+007  0.682952E+011   5661.93       0.628989E+007  0.296759E+007
  1501.68       0.116068E+007  0.684481E+011   5657.12       0.629280E+007  0.296112E+007
  1533.30       0.116068E+007  0.685923E+011   5651.44       0.629910E+007  0.295348E+007
  300.000       0.117265E+007  0.635422E+011   5731.36       0.657502E+007  0.314213E+007
  331.623       0.117265E+007  0.636653E+011   5733.00       0.656374E+007  0.313692E+007
  363.246       0.117265E+007  0.638009E+011   5734.63       0.655169E+007  0.313150E+007
  394.869       0.117265E+007  0.639466E+011   5736.21       0.653911E+007  0.312602E+007
  426.492       0.117265E+007  0.641008E+011   5737.69       0.652618E+007  0.312056E+007
  458.115       0.117265E+007  0.642617E+011   5739.05       0.651305E+007  0.311521E+007
  489.738       0.117265E+007  0.644281E+011   5740.27       0.649985E+007  0.311001E+007
  521.362       0.117265E+007  0.645989E+011   5741.34       0.648665E+007  0.310499E+007
  552.985       0.117265E+007  0.647732E+011   5742.26       0.647354E+007  0.310017E+007
  584.608       0.117265E+007  0.649503E+011   5743.01       0.646057E+007  0.309555E+007
  616.231       0.117265E+007  0.651149E+011   5742.44       0.645150E+007  0.309150E+007
  647.854       0.117265E+007  0.652626E+011   5740.19       0.644752E+007  0.308797E+007
  679.477       0.117265E+007  0.654132E+011   5737.89       0.644345E+007  0.308436E+007
  711.100       0.117265E+007  0.655663E+011   5735.56       0.643931E+007  0.308068E+007
  742.723       0.117265E+007  0.657217E+011   5733.18       0.643511E+007  0.307694E+007
  774.346       0.117265E+007  0.658791E+011   5730.77       0.643086E+007  0.307315E+007
  805.969       0.117265E+007  0.660384E+011   5728.33       0.642655E+007  0.306932E+007
  837.592       0.117265E+007  0.661992E+011   5725.87       0.642219E+007  0.306543E+007
  869.215       0.117265E+007  0.663616E+011   5723.38       0.641779E+007  0.306151E+007
  900.838       0.117265E+007  0.665252E+011   5720.86       0.641336E+007  0.305755E+007
  932.462       0.117265E+007  0.666901E+011   5718.32       0.640889E+007  0.305356E+007
  964.085       0.117265E+007  0.668560E+011   5715.77       0.640438E+007  0.304953E+007
  995.708       0.117265E+007  0.670229E+011   5713.19       0.639985E+007  0.304548E+007
  1027.33       0.117265E+007  0.671907E+011   5710.60       0.639530E+007  0.304139E+007
  1058.95       0.117265E+007  0.673593E+011   5708.00       0.639071E+007  0.303729E+007
  1090.58       0.117265E+007  0.675286E+011   5705.37       0.638611E+007  0.303315E+007
  1122.20       0.117265E+007  0.676986E+011   5702.74       0.638148E+007  0.302900E+007
  1153.82       0.117265E+007  0.678692E+011   5700.09       0.637684E+007  0.302483E+007
  1185.45       0.117265E+007  0.680404E+011   5697.43       0.637217E+007  0.302063E+007
  1217.07       0.117265E+007  0.682121E+011   5694.76       0.636749E+007  0.301642E+007
  1248.69       0.117265E+007  0.683843E+011   5692.07       0.636280E+007  0.301218E+007
  1280.32       0.117265E+007  0.685569E+011   5689.38       0.635809E+007  0.300793E+007
  1311.94       0.117265E+007  0.687299E+011   5686.68       0.635336E+007  0.300367E+007
  1343.56       0.117265E+007  0.689033E+011   5683.97       0.634863E+007  0.299939E+007
  1375.18       0.117265E+007  0.690770E+011   5681.25       0.634388E+007  0.299509E+007
  1406.81       0.117265E+007  0.692510E+011   5678.52       0.633912E+007  0.299078E+007
  1438.43       0.117265E+007  0.694253E+011   5675.78       0.633435E+007  0.298646E+007
  1470.05       0.117265E+007  0.695999E+011   5673.03       0.632957E+007  0.298212E+007
  1501.68       0.117265E+007  0.697747E+011   5670.28       0.632477E+007  0.297777E+007
  1533.30       0.117265E+007  0.699497E+011   5667.52       0.631998E+007  0.297341E+007
  300.000       0.118462E+007  0.649063E+011   5745.96       0.660165E+007  0.315296E+007
  331.623       0.118462E+007  0.650399E+011   5748.48       0.658769E+007  0.314732E+007
  363.246       0.118462E+007  0.651857E+011   5750.96       0.657303E+007  0.314157E+007
  394.869       0.118462E+007  0.653413E+011   5753.36       0.655790E+007  0.313585E+007
  426.492       0.118462E+007  0.655049E+011   5755.64       0.654252E+007  0.313025E+007
  458.115       0.118462E+007  0.656749E+011   5757.77       0.652702E+007  0.312483E+007
  489.738       0.118462E+007  0.658500E+011   5759.73       0.651153E+007  0.311964E+007
  521.362       0.118462E+007  0.660045E+011   5759.56       0.650227E+007  0.311559E+007
  552.985       0.118462E+007  0.661408E+011   5757.50       0.649860E+007  0.311234E+007
  584.608       0.118462E+007  0.662813E+011   5755.37       0.649482E+007  0.310899E+007
  616.231       0.118462E+007  0.664255E+011   5753.18       0.649093E+007  0.310555E+007
  647.854       0.118462E+007  0.665729E+011   5750.94       0.648695E+007  0.310203E+007
  679.477       0.118462E+007  0.667233E+011   5748.66       0.648289E+007  0.309843E+007
  711.100       0.118462E+007  0.668762E+011   5746.33       0.647877E+007  0.309477E+007
  742.723       0.118462E+007  0.670314E+011   5743.97       0.647457E+007  0.309105E+007
  774.346       0.118462E+007  0.671886E+011   5741.57       0.647032E+007  0.308728E+007
  805.969       0.118462E+007  0.673477E+011   5739.15       0.646602E+007  0.308346E+007
  837.592       0.118462E+007  0.675084E+011   5736.69       0.646168E+007  0.307959E+007
  869.215       0.118462E+007  0.676706E+011   5734.21       0.645729E+007  0.307569E+007
  900.838       0.118462E+007  0.678340E+011   5731.71       0.645286E+007  0.307174E+007
  932.462       0.118462E+007  0.679987E+011   5729.18       0.644840E+007  0.306776E+007
  964.085       0.118462E+007  0.681645E+011   5726.64       0.644390E+007  0.306375E+007
  995.708       0.118462E+007  0.683312E+011   5724.08       0.643938E+007  0.305971E+007
  1027.33       0.118462E+007  0.684989E+011   5721.50       0.643483E+007  0.305565E+007
  1058.95       0.118462E+007  0.686673E+011   5718.90       0.643025E+007  0.305156E+007
  1090.58       0.118462E+007  0.688365E+011   5716.29       0.642566E+007  0.304744E+007
  1122.20       0.118462E+007  0.690064E+011   5713.67       0.642104E+007  0.304330E+007
  1153.82       0.118462E+007  0.691769E+011   5711.03       0.641640E+007  0.303914E+007
  1185.45       0.118462E+007  0.693480E+011   5708.38       0.641174E+007  0.303496E+007
  1217.07       0.118462E+007  0.695195E+011   5705.72       0.640707E+007  0.303077E+007
  1248.69       0.118462E+007  0.696916E+011   5703.05       0.640238E+007  0.302655E+007
  1280.32       0.118462E+007  0.698641E+011   5700.37       0.639768E+007  0.302232E+007
  1311.94       0.118462E+007  0.700369E+011   5697.68       0.639296E+007  0.301807E+007
  1343.56       0.118462E+007  0.702102E+011   5694.98       0.638823E+007  0.301380E+007
  1375.18       0.118462E+007  0.703838E+011   5692.27       0.638349E+007  0.300952E+007
  1406.81       0.118462E+007  0.705577E+011   5689.55       0.637874E+007  0.300523E+007
  1438.43       0.118462E+007  0.707319E+011   5686.82       0.637398E+007  0.300092E+007
  1470.05       0.118462E+007  0.709063E+011   5684.09       0.636920E+007  0.299660E+007
  1501.68       0.118462E+007  0.710810E+011   5681.35       0.636442E+007  0.299227E+007
  1533.30       0.118462E+007  0.712560E+011   5678.60       0.635963E+007  0.298792E+007
  300.000       0.119658E+007  0.662962E+011   5762.40       0.662252E+007  0.316223E+007
  331.623       0.119658E+007  0.664434E+011   5766.02       0.660519E+007  0.315609E+007
  363.246       0.119658E+007  0.666022E+011   5769.57       0.658727E+007  0.314997E+007
  394.869       0.119658E+007  0.667702E+011   5772.99       0.656901E+007  0.314400E+007
  426.492       0.119658E+007  0.669411E+011   5775.89       0.655176E+007  0.313847E+007
  458.115       0.119658E+007  0.670606E+011   5774.09       0.654855E+007  0.313564E+007
  489.738       0.119658E+007  0.671863E+011   5772.20       0.654517E+007  0.313266E+007
  521.362       0.119658E+007  0.673175E+011   5770.22       0.654164E+007  0.312954E+007
  552.985       0.119658E+007  0.674535E+011   5768.17       0.653797E+007  0.312631E+007
  584.608       0.119658E+007  0.675938E+011   5766.06       0.653420E+007  0.312298E+007
  616.231       0.119658E+007  0.677377E+011   5763.88       0.653032E+007  0.311956E+007
  647.854       0.119658E+007  0.678850E+011   5761.65       0.652635E+007  0.311605E+007
  679.477       0.119658E+007  0.680351E+011   5759.38       0.652230E+007  0.311247E+007
  711.100       0.119658E+007  0.681879E+011   5757.07       0.651818E+007  0.310882E+007
  742.723       0.119658E+007  0.683429E+011   5754.72       0.651400E+007  0.310512E+007
  774.346       0.119658E+007  0.684999E+011   5752.33       0.650976E+007  0.310136E+007
  805.969       0.119658E+007  0.686588E+011   5749.91       0.650547E+007  0.309756E+007
  837.592       0.119658E+007  0.688193E+011   5747.47       0.650113E+007  0.309371E+007
  869.215       0.119658E+007  0.689813E+011   5745.00       0.649675E+007  0.308982E+007
  900.838       0.119658E+007  0.691446E+011   5742.51       0.649233E+007  0.308589E+007
  932.462       0.119658E+007  0.693092E+011   5739.99       0.648787E+007  0.308193E+007
  964.085       0.119658E+007  0.694748E+011   5737.46       0.648339E+007  0.307793E+007
  995.708       0.119658E+007  0.696414E+011   5734.91       0.647887E+007  0.307391E+007
  1027.33       0.119658E+007  0.698089E+011   5732.34       0.647433E+007  0.306986E+007
  1058.95       0.119658E+007  0.699772E+011   5729.76       0.646976E+007  0.306578E+007
  1090.58       0.119658E+007  0.701463E+011   5727.16       0.646517E+007  0.306168E+007
  1122.20       0.119658E+007  0.703160E+011   5724.55       0.646056E+007  0.305756E+007
  1153.82       0.119658E+007  0.704864E+011   5721.92       0.645593E+007  0.305342E+007
  1185.45       0.119658E+007  0.706573E+011   5719.28       0.645128E+007  0.304925E+007
  1217.07       0.119658E+007  0.708288E+011   5716.63       0.644662E+007  0.304507E+007
  1248.69       0.119658E+007  0.710007E+011   5713.97       0.644193E+007  0.304087E+007
  1280.32       0.119658E+007  0.711730E+011   5711.30       0.643724E+007  0.303665E+007
  1311.94       0.119658E+007  0.713458E+011   5708.62       0.643253E+007  0.303242E+007
  1343.56       0.119658E+007  0.715190E+011   5705.94       0.642781E+007  0.302817E+007
  1375.18       0.119658E+007  0.716924E+011   5703.24       0.642307E+007  0.302391E+007
  1406.81       0.119658E+007  0.718662E+011   5700.53       0.641833E+007  0.301963E+007
  1438.43       0.119658E+007  0.720403E+011   5697.82       0.641357E+007  0.301534E+007
  1470.05       0.119658E+007  0.722146E+011   5695.09       0.640880E+007  0.301104E+007
  1501.68       0.119658E+007  0.723892E+011   5692.37       0.640403E+007  0.300672E+007
  1533.30       0.119658E+007  0.725640E+011   5689.63       0.639924E+007  0.300239E+007
  300.000       0.120855E+007  0.677261E+011   5781.75       0.663435E+007  0.316932E+007
  331.623       0.120855E+007  0.678911E+011   5786.81       0.661268E+007  0.316262E+007
  363.246       0.120855E+007  0.680409E+011   5789.71       0.659685E+007  0.315743E+007
  394.869       0.120855E+007  0.681447E+011   5788.15       0.659406E+007  0.315498E+007
  426.492       0.120855E+007  0.682566E+011   5786.48       0.659105E+007  0.315234E+007
  458.115       0.120855E+007  0.683758E+011   5784.69       0.658785E+007  0.314952E+007
  489.738       0.120855E+007  0.685013E+011   5782.81       0.658448E+007  0.314656E+007
  521.362       0.120855E+007  0.686322E+011   5780.85       0.658096E+007  0.314346E+007
  552.985       0.120855E+007  0.687680E+011   5778.80       0.657731E+007  0.314025E+007
  584.608       0.120855E+007  0.689080E+011   5776.70       0.657354E+007  0.313693E+007
  616.231       0.120855E+007  0.690518E+011   5774.54       0.656968E+007  0.313352E+007
  647.854       0.120855E+007  0.691988E+011   5772.32       0.656572E+007  0.313003E+007
  679.477       0.120855E+007  0.693487E+011   5770.06       0.656168E+007  0.312646E+007
  711.100       0.120855E+007  0.695012E+011   5767.75       0.655757E+007  0.312283E+007
  742.723       0.120855E+007  0.696561E+011   5765.41       0.655339E+007  0.311915E+007
  774.346       0.120855E+007  0.698129E+011   5763.04       0.654916E+007  0.311540E+007
  805.969       0.120855E+007  0.699716E+011   5760.63       0.654487E+007  0.311161E+007
  837.592       0.120855E+007  0.701320E+011   5758.20       0.654054E+007  0.310778E+007
  869.215       0.120855E+007  0.702938E+011   5755.74       0.653617E+007  0.310390E+007
  900.838       0.120855E+007  0.704570E+011   5753.26       0.653176E+007  0.309999E+007
  932.462       0.120855E+007  0.706214E+011   5750.76       0.652731E+007  0.309604E+007
  964.085       0.120855E+007  0.707868E+011   5748.24       0.652283E+007  0.309207E+007
  995.708       0.120855E+007  0.709533E+011   5745.70       0.651833E+007  0.308806E+007
  1027.33       0.120855E+007  0.711207E+011   5743.14       0.651379E+007  0.308402E+007
  1058.95       0.120855E+007  0.712888E+011   5740.57       0.650923E+007  0.307996E+007
  1090.58       0.120855E+007  0.714578E+011   5737.98       0.650465E+007  0.307588E+007
  1122.20       0.120855E+007  0.716274E+011   5735.38       0.650004E+007  0.307177E+007
  1153.82       0.120855E+007  0.717976E+011   5732.76       0.649542E+007  0.306764E+007
  1185.45       0.120855E+007  0.719684E+011   5730.14       0.649078E+007  0.306350E+007
  1217.07       0.120855E+007  0.721398E+011   5727.50       0.648612E+007  0.305933E+007
  1248.69       0.120855E+007  0.723116E+011   5724.85       0.648145E+007  0.305515E+007
  1280.32       0.120855E+007  0.724838E+011   5722.19       0.647676E+007  0.305095E+007
  1311.94       0.120855E+007  0.726565E+011   5719.52       0.647206E+007  0.304673E+007
  1343.56       0.120855E+007  0.728295E+011   5716.85       0.646734E+007  0.304250E+007
  1375.18       0.120855E+007  0.730029E+011   5714.16       0.646262E+007  0.303825E+007
  1406.81       0.120855E+007  0.731765E+011   5711.46       0.645788E+007  0.303399E+007
  1438.43       0.120855E+007  0.733505E+011   5708.76       0.645313E+007  0.302971E+007
  1470.05       0.120855E+007  0.735247E+011   5706.05       0.644837E+007  0.302543E+007
  1501.68       0.120855E+007  0.736992E+011   5703.33       0.644360E+007  0.302113E+007
  1533.30       0.120855E+007  0.738739E+011   5700.61       0.643882E+007  0.301681E+007
  300.000       0.122051E+007  0.691810E+011   5802.88       0.664085E+007  0.317541E+007
  331.623       0.122051E+007  0.692646E+011   5801.64       0.663861E+007  0.317345E+007
  363.246       0.122051E+007  0.693588E+011   5800.23       0.663609E+007  0.317123E+007
  394.869       0.122051E+007  0.694622E+011   5798.69       0.663331E+007  0.316880E+007
  426.492       0.122051E+007  0.695739E+011   5797.02       0.663032E+007  0.316617E+007
  458.115       0.122051E+007  0.696928E+011   5795.25       0.662713E+007  0.316337E+007
  489.738       0.122051E+007  0.698179E+011   5793.38       0.662377E+007  0.316042E+007
  521.362       0.122051E+007  0.699486E+011   5791.42       0.662026E+007  0.315734E+007
  552.985       0.122051E+007  0.700842E+011   5789.39       0.661662E+007  0.315414E+007
  584.608       0.122051E+007  0.702240E+011   5787.30       0.661286E+007  0.315083E+007
  616.231       0.122051E+007  0.703675E+011   5785.14       0.660900E+007  0.314744E+007
  647.854       0.122051E+007  0.705143E+011   5782.94       0.660505E+007  0.314396E+007
  679.477       0.122051E+007  0.706640E+011   5780.69       0.660102E+007  0.314042E+007
  711.100       0.122051E+007  0.708163E+011   5778.40       0.659692E+007  0.313680E+007
  742.723       0.122051E+007  0.709710E+011   5776.07       0.659275E+007  0.313313E+007
  774.346       0.122051E+007  0.711277E+011   5773.70       0.658852E+007  0.312940E+007
  805.969       0.122051E+007  0.712862E+011   5771.31       0.658425E+007  0.312563E+007
  837.592       0.122051E+007  0.714464E+011   5768.89       0.657993E+007  0.312181E+007
  869.215       0.122051E+007  0.716081E+011   5766.44       0.657556E+007  0.311795E+007
  900.838       0.122051E+007  0.717711E+011   5763.97       0.657116E+007  0.311405E+007
  932.462       0.122051E+007  0.719353E+011   5761.48       0.656672E+007  0.311012E+007
  964.085       0.122051E+007  0.721006E+011   5758.97       0.656225E+007  0.310616E+007
  995.708       0.122051E+007  0.722670E+011   5756.44       0.655775E+007  0.310216E+007
  1027.33       0.122051E+007  0.724342E+011   5753.89       0.655322E+007  0.309814E+007
  1058.95       0.122051E+007  0.726022E+011   5751.33       0.654867E+007  0.309410E+007
  1090.58       0.122051E+007  0.727710E+011   5748.75       0.654409E+007  0.309003E+007
  1122.20       0.122051E+007  0.729405E+011   5746.16       0.653950E+007  0.308594E+007
  1153.82       0.122051E+007  0.731106E+011   5743.56       0.653488E+007  0.308183E+007
  1185.45       0.122051E+007  0.732813E+011   5740.94       0.653025E+007  0.307770E+007
  1217.07       0.122051E+007  0.734525E+011   5738.32       0.652560E+007  0.307355E+007
  1248.69       0.122051E+007  0.736242E+011   5735.68       0.652093E+007  0.306938E+007
  1280.32       0.122051E+007  0.737963E+011   5733.03       0.651625E+007  0.306519E+007
  1311.94       0.122051E+007  0.739689E+011   5730.38       0.651155E+007  0.306099E+007
  1343.56       0.122051E+007  0.741418E+011   5727.71       0.650684E+007  0.305678E+007
  1375.18       0.122051E+007  0.743150E+011   5725.03       0.650212E+007  0.305254E+007
  1406.81       0.122051E+007  0.744886E+011   5722.35       0.649739E+007  0.304830E+007
  1438.43       0.122051E+007  0.746625E+011   5719.66       0.649265E+007  0.304404E+007
  1470.05       0.122051E+007  0.748366E+011   5716.96       0.648790E+007  0.303977E+007
  1501.68       0.122051E+007  0.750110E+011   5714.25       0.648314E+007  0.303548E+007
  1533.30       0.122051E+007  0.751856E+011   5711.54       0.647837E+007  0.303119E+007
  300.000       0.123248E+007  0.705012E+011   5813.34       0.668004E+007  0.318915E+007
  331.623       0.123248E+007  0.705845E+011   5812.11       0.667781E+007  0.318719E+007
  363.246       0.123248E+007  0.706783E+011   5810.71       0.667530E+007  0.318499E+007
  394.869       0.123248E+007  0.707814E+011   5809.18       0.667254E+007  0.318257E+007
  426.492       0.123248E+007  0.708928E+011   5807.52       0.666955E+007  0.317996E+007
  458.115       0.123248E+007  0.710114E+011   5805.76       0.666637E+007  0.317717E+007
  489.738       0.123248E+007  0.711363E+011   5803.90       0.666302E+007  0.317424E+007
  521.362       0.123248E+007  0.712667E+011   5801.95       0.665952E+007  0.317117E+007
  552.985       0.123248E+007  0.714020E+011   5799.94       0.665589E+007  0.316799E+007
  584.608       0.123248E+007  0.715416E+011   5797.85       0.665214E+007  0.316470E+007
  616.231       0.123248E+007  0.716849E+011   5795.71       0.664829E+007  0.316132E+007
  647.854       0.123248E+007  0.718315E+011   5793.51       0.664435E+007  0.315786E+007
  679.477       0.123248E+007  0.719810E+011   5791.27       0.664032E+007  0.315433E+007
  711.100       0.123248E+007  0.721331E+011   5788.99       0.663623E+007  0.315073E+007
  742.723       0.123248E+007  0.722876E+011   5786.67       0.663207E+007  0.314707E+007
  774.346       0.123248E+007  0.724441E+011   5784.32       0.662786E+007  0.314336E+007
  805.969       0.123248E+007  0.726025E+011   5781.94       0.662359E+007  0.313960E+007
  837.592       0.123248E+007  0.727625E+011   5779.53       0.661927E+007  0.313579E+007
  869.215       0.123248E+007  0.729240E+011   5777.09       0.661492E+007  0.313195E+007
  900.838       0.123248E+007  0.730869E+011   5774.63       0.661052E+007  0.312807E+007
  932.462       0.123248E+007  0.732510E+011   5772.15       0.660609E+007  0.312415E+007
  964.085       0.123248E+007  0.734161E+011   5769.65       0.660163E+007  0.312020E+007
  995.708       0.123248E+007  0.735823E+011   5767.13       0.659713E+007  0.311623E+007
  1027.33       0.123248E+007  0.737494E+011   5764.60       0.659261E+007  0.311222E+007
  1058.95       0.123248E+007  0.739173E+011   5762.04       0.658807E+007  0.310819E+007
  1090.58       0.123248E+007  0.740860E+011   5759.48       0.658350E+007  0.310414E+007
  1122.20       0.123248E+007  0.742554E+011   5756.90       0.657891E+007  0.310006E+007
  1153.82       0.123248E+007  0.744253E+011   5754.31       0.657430E+007  0.309597E+007
  1185.45       0.123248E+007  0.745959E+011   5751.70       0.656968E+007  0.309185E+007
  1217.07       0.123248E+007  0.747670E+011   5749.09       0.656503E+007  0.308772E+007
  1248.69       0.123248E+007  0.749386E+011   5746.46       0.656037E+007  0.308356E+007
  1280.32       0.123248E+007  0.751106E+011   5743.83       0.655570E+007  0.307939E+007
  1311.94       0.123248E+007  0.752830E+011   5741.18       0.655101E+007  0.307521E+007
  1343.56       0.123248E+007  0.754558E+011   5738.52       0.654631E+007  0.307101E+007
  1375.18       0.123248E+007  0.756290E+011   5735.86       0.654160E+007  0.306679E+007
  1406.81       0.123248E+007  0.758025E+011   5733.19       0.653687E+007  0.306256E+007
  1438.43       0.123248E+007  0.759762E+011   5730.51       0.653214E+007  0.305832E+007
  1470.05       0.123248E+007  0.761503E+011   5727.82       0.652739E+007  0.305406E+007
  1501.68       0.123248E+007  0.763245E+011   5725.13       0.652264E+007  0.304980E+007
  1533.30       0.123248E+007  0.764990E+011   5722.42       0.651787E+007  0.304551E+007
  300.000       0.124444E+007  0.718230E+011   5823.77       0.671920E+007  0.320284E+007
  331.623       0.124444E+007  0.719059E+011   5822.54       0.671698E+007  0.320090E+007
  363.246       0.124444E+007  0.719994E+011   5821.15       0.671448E+007  0.319871E+007
  394.869       0.124444E+007  0.721023E+011   5819.63       0.671172E+007  0.319631E+007
  426.492       0.124444E+007  0.722134E+011   5817.98       0.670875E+007  0.319371E+007
  458.115       0.124444E+007  0.723317E+011   5816.23       0.670558E+007  0.319094E+007
  489.738       0.124444E+007  0.724563E+011   5814.38       0.670224E+007  0.318802E+007
  521.362       0.124444E+007  0.725865E+011   5812.44       0.669875E+007  0.318496E+007
  552.985       0.124444E+007  0.727216E+011   5810.43       0.669512E+007  0.318179E+007
  584.608       0.124444E+007  0.728609E+011   5808.36       0.669139E+007  0.317852E+007
  616.231       0.124444E+007  0.730040E+011   5806.23       0.668754E+007  0.317516E+007
  647.854       0.124444E+007  0.731503E+011   5804.05       0.668361E+007  0.317171E+007
  679.477       0.124444E+007  0.732997E+011   5801.82       0.667960E+007  0.316819E+007
  711.100       0.124444E+007  0.734516E+011   5799.54       0.667551E+007  0.316461E+007
  742.723       0.124444E+007  0.736059E+011   5797.24       0.667136E+007  0.316097E+007
  774.346       0.124444E+007  0.737622E+011   5794.89       0.666715E+007  0.315727E+007
  805.969       0.124444E+007  0.739204E+011   5792.52       0.666289E+007  0.315353E+007
  837.592       0.124444E+007  0.740803E+011   5790.12       0.665859E+007  0.314974E+007
  869.215       0.124444E+007  0.742417E+011   5787.69       0.665424E+007  0.314591E+007
  900.838       0.124444E+007  0.744044E+011   5785.25       0.664985E+007  0.314204E+007
  932.462       0.124444E+007  0.745683E+011   5782.78       0.664543E+007  0.313814E+007
  964.085       0.124444E+007  0.747333E+011   5780.29       0.664097E+007  0.313421E+007
  995.708       0.124444E+007  0.748994E+011   5777.78       0.663648E+007  0.313025E+007
  1027.33       0.124444E+007  0.750663E+011   5775.25       0.663197E+007  0.312626E+007
  1058.95       0.124444E+007  0.752341E+011   5772.71       0.662743E+007  0.312224E+007
  1090.58       0.124444E+007  0.754027E+011   5770.16       0.662287E+007  0.311821E+007
  1122.20       0.124444E+007  0.755719E+011   5767.59       0.661829E+007  0.311415E+007
  1153.82       0.124444E+007  0.757418E+011   5765.01       0.661369E+007  0.311006E+007
  1185.45       0.124444E+007  0.759122E+011   5762.42       0.660907E+007  0.310596E+007
  1217.07       0.124444E+007  0.760832E+011   5759.81       0.660443E+007  0.310184E+007
  1248.69       0.124444E+007  0.762547E+011   5757.20       0.659978E+007  0.309771E+007
  1280.32       0.124444E+007  0.764266E+011   5754.57       0.659512E+007  0.309355E+007
  1311.94       0.124444E+007  0.765989E+011   5751.94       0.659043E+007  0.308938E+007
  1343.56       0.124444E+007  0.767716E+011   5749.29       0.658574E+007  0.308520E+007
  1375.18       0.124444E+007  0.769447E+011   5746.64       0.658103E+007  0.308100E+007
  1406.81       0.124444E+007  0.771180E+011   5743.98       0.657632E+007  0.307678E+007
  1438.43       0.124444E+007  0.772917E+011   5741.31       0.657159E+007  0.307256E+007
  1470.05       0.124444E+007  0.774656E+011   5738.63       0.656685E+007  0.306832E+007
  1501.68       0.124444E+007  0.776398E+011   5735.95       0.656210E+007  0.306406E+007
  1533.30       0.124444E+007  0.778142E+011   5733.26       0.655734E+007  0.305980E+007
  300.000       0.125641E+007  0.731464E+011   5834.14       0.675833E+007  0.321650E+007
  331.623       0.125641E+007  0.732290E+011   5832.92       0.675612E+007  0.321457E+007
  363.246       0.125641E+007  0.733222E+011   5831.55       0.675363E+007  0.321239E+007
  394.869       0.125641E+007  0.734248E+011   5830.04       0.675088E+007  0.321000E+007
  426.492       0.125641E+007  0.735356E+011   5828.40       0.674792E+007  0.320741E+007
  458.115       0.125641E+007  0.736536E+011   5826.65       0.674476E+007  0.320466E+007
  489.738       0.125641E+007  0.737780E+011   5824.81       0.674142E+007  0.320175E+007
  521.362       0.125641E+007  0.739079E+011   5822.89       0.673794E+007  0.319872E+007
  552.985       0.125641E+007  0.740427E+011   5820.89       0.673433E+007  0.319556E+007
  584.608       0.125641E+007  0.741818E+011   5818.83       0.673060E+007  0.319230E+007
  616.231       0.125641E+007  0.743247E+011   5816.71       0.672677E+007  0.318895E+007
  647.854       0.125641E+007  0.744709E+011   5814.53       0.672284E+007  0.318552E+007
  679.477       0.125641E+007  0.746200E+011   5812.31       0.671884E+007  0.318202E+007
  711.100       0.125641E+007  0.747718E+011   5810.05       0.671476E+007  0.317845E+007
  742.723       0.125641E+007  0.749259E+011   5807.75       0.671062E+007  0.317482E+007
  774.346       0.125641E+007  0.750820E+011   5805.42       0.670642E+007  0.317114E+007
  805.969       0.125641E+007  0.752401E+011   5803.06       0.670217E+007  0.316741E+007
  837.592       0.125641E+007  0.753998E+011   5800.67       0.669787E+007  0.316364E+007
  869.215       0.125641E+007  0.755610E+011   5798.26       0.669353E+007  0.315982E+007
  900.838       0.125641E+007  0.757235E+011   5795.82       0.668915E+007  0.315597E+007
  932.462       0.125641E+007  0.758873E+011   5793.36       0.668473E+007  0.315209E+007
  964.085       0.125641E+007  0.760522E+011   5790.88       0.668028E+007  0.314817E+007
  995.708       0.125641E+007  0.762181E+011   5788.38       0.667580E+007  0.314422E+007
  1027.33       0.125641E+007  0.763850E+011   5785.87       0.667130E+007  0.314025E+007
  1058.95       0.125641E+007  0.765526E+011   5783.34       0.666677E+007  0.313625E+007
  1090.58       0.125641E+007  0.767211E+011   5780.79       0.666221E+007  0.313223E+007
  1122.20       0.125641E+007  0.768902E+011   5778.24       0.665764E+007  0.312818E+007
  1153.82       0.125641E+007  0.770599E+011   5775.67       0.665305E+007  0.312412E+007
  1185.45       0.125641E+007  0.772303E+011   5773.08       0.664843E+007  0.312003E+007
  1217.07       0.125641E+007  0.774011E+011   5770.49       0.664380E+007  0.311593E+007
  1248.69       0.125641E+007  0.775725E+011   5767.89       0.663916E+007  0.311181E+007
  1280.32       0.125641E+007  0.777443E+011   5765.27       0.663450E+007  0.310767E+007
  1311.94       0.125641E+007  0.779165E+011   5762.65       0.662982E+007  0.310351E+007
  1343.56       0.125641E+007  0.780891E+011   5760.01       0.662514E+007  0.309934E+007
  1375.18       0.125641E+007  0.782621E+011   5757.37       0.662044E+007  0.309516E+007
  1406.81       0.125641E+007  0.784353E+011   5754.72       0.661573E+007  0.309096E+007
  1438.43       0.125641E+007  0.786089E+011   5752.06       0.661100E+007  0.308675E+007
  1470.05       0.125641E+007  0.787827E+011   5749.40       0.660627E+007  0.308252E+007
  1501.68       0.125641E+007  0.789568E+011   5746.73       0.660153E+007  0.307828E+007
  1533.30       0.125641E+007  0.791311E+011   5744.05       0.659678E+007  0.307403E+007
  300.000       0.126838E+007  0.744714E+011   5844.48       0.679742E+007  0.323011E+007
  331.623       0.126838E+007  0.745538E+011   5843.27       0.679522E+007  0.322820E+007
  363.246       0.126838E+007  0.746467E+011   5841.90       0.679274E+007  0.322603E+007
  394.869       0.126838E+007  0.747489E+011   5840.40       0.679001E+007  0.322366E+007
  426.492       0.126838E+007  0.748594E+011   5838.77       0.678705E+007  0.322108E+007
  458.115       0.126838E+007  0.749772E+011   5837.04       0.678390E+007  0.321834E+007
  489.738       0.126838E+007  0.751013E+011   5835.21       0.678058E+007  0.321545E+007
  521.362       0.126838E+007  0.752310E+011   5833.29       0.677711E+007  0.321243E+007
  552.985       0.126838E+007  0.753656E+011   5831.30       0.677350E+007  0.320929E+007
  584.608       0.126838E+007  0.755044E+011   5829.25       0.676978E+007  0.320605E+007
  616.231       0.126838E+007  0.756471E+011   5827.14       0.676596E+007  0.320271E+007
  647.854       0.126838E+007  0.757931E+011   5824.98       0.676204E+007  0.319930E+007
  679.477       0.126838E+007  0.759420E+011   5822.77       0.675805E+007  0.319581E+007
  711.100       0.126838E+007  0.760936E+011   5820.52       0.675398E+007  0.319225E+007
  742.723       0.126838E+007  0.762475E+011   5818.23       0.674984E+007  0.318864E+007
  774.346       0.126838E+007  0.764035E+011   5815.91       0.674565E+007  0.318497E+007
  805.969       0.126838E+007  0.765613E+011   5813.56       0.674141E+007  0.318126E+007
  837.592       0.126838E+007  0.767209E+011   5811.18       0.673712E+007  0.317750E+007
  869.215       0.126838E+007  0.768819E+011   5808.77       0.673278E+007  0.317370E+007
  900.838       0.126838E+007  0.770444E+011   5806.35       0.672841E+007  0.316986E+007
  932.462       0.126838E+007  0.772080E+011   5803.90       0.672400E+007  0.316599E+007
  964.085       0.126838E+007  0.773728E+011   5801.43       0.671956E+007  0.316209E+007
  995.708       0.126838E+007  0.775386E+011   5798.94       0.671509E+007  0.315816E+007
  1027.33       0.126838E+007  0.777053E+011   5796.44       0.671059E+007  0.315420E+007
  1058.95       0.126838E+007  0.778728E+011   5793.92       0.670607E+007  0.315022E+007
  1090.58       0.126838E+007  0.780411E+011   5791.39       0.670152E+007  0.314621E+007
  1122.20       0.126838E+007  0.782101E+011   5788.84       0.669695E+007  0.314218E+007
  1153.82       0.126838E+007  0.783798E+011   5786.28       0.669237E+007  0.313813E+007
  1185.45       0.126838E+007  0.785500E+011   5783.71       0.668776E+007  0.313406E+007
  1217.07       0.126838E+007  0.787207E+011   5781.12       0.668314E+007  0.312997E+007
  1248.69       0.126838E+007  0.788920E+011   5778.53       0.667850E+007  0.312586E+007
  1280.32       0.126838E+007  0.790637E+011   5775.93       0.667385E+007  0.312174E+007
  1311.94       0.126838E+007  0.792358E+011   5773.31       0.666918E+007  0.311760E+007
  1343.56       0.126838E+007  0.794083E+011   5770.69       0.666450E+007  0.311344E+007
  1375.18       0.126838E+007  0.795811E+011   5768.06       0.665980E+007  0.310927E+007
  1406.81       0.126838E+007  0.797543E+011   5765.42       0.665510E+007  0.310509E+007
  1438.43       0.126838E+007  0.799278E+011   5762.77       0.665039E+007  0.310089E+007
  1470.05       0.126838E+007  0.801015E+011   5760.12       0.664566E+007  0.309668E+007
  1501.68       0.126838E+007  0.802755E+011   5757.46       0.664093E+007  0.309246E+007
  1533.30       0.126838E+007  0.804497E+011   5754.79       0.663618E+007  0.308823E+007
  300.000       0.128034E+007  0.757980E+011   5854.78       0.683649E+007  0.324369E+007
  331.623       0.128034E+007  0.758801E+011   5853.57       0.683430E+007  0.324178E+007
  363.246       0.128034E+007  0.759727E+011   5852.22       0.683182E+007  0.323964E+007
  394.869       0.128034E+007  0.760747E+011   5850.72       0.682910E+007  0.323727E+007
  426.492       0.128034E+007  0.761849E+011   5849.10       0.682616E+007  0.323471E+007
  458.115       0.128034E+007  0.763024E+011   5847.38       0.682301E+007  0.323199E+007
  489.738       0.128034E+007  0.764262E+011   5845.56       0.681970E+007  0.322911E+007
  521.362       0.128034E+007  0.765557E+011   5843.65       0.681624E+007  0.322610E+007
  552.985       0.128034E+007  0.766900E+011   5841.68       0.681265E+007  0.322298E+007
  584.608       0.128034E+007  0.768286E+011   5839.63       0.680893E+007  0.321975E+007
  616.231       0.128034E+007  0.769711E+011   5837.53       0.680512E+007  0.321643E+007
  647.854       0.128034E+007  0.771169E+011   5835.38       0.680121E+007  0.321303E+007
  679.477       0.128034E+007  0.772656E+011   5833.18       0.679722E+007  0.320955E+007
  711.100       0.128034E+007  0.774170E+011   5830.94       0.679316E+007  0.320601E+007
  742.723       0.128034E+007  0.775707E+011   5828.66       0.678904E+007  0.320242E+007
  774.346       0.128034E+007  0.777266E+011   5826.35       0.678485E+007  0.319876E+007
  805.969       0.128034E+007  0.778843E+011   5824.01       0.678062E+007  0.319506E+007
  837.592       0.128034E+007  0.780437E+011   5821.64       0.677633E+007  0.319132E+007
  869.215       0.128034E+007  0.782046E+011   5819.25       0.677201E+007  0.318753E+007
  900.838       0.128034E+007  0.783669E+011   5816.83       0.676764E+007  0.318371E+007
  932.462       0.128034E+007  0.785304E+011   5814.39       0.676324E+007  0.317986E+007
  964.085       0.128034E+007  0.786950E+011   5811.93       0.675880E+007  0.317597E+007
  995.708       0.128034E+007  0.788607E+011   5809.46       0.675434E+007  0.317205E+007
  1027.33       0.128034E+007  0.790272E+011   5806.96       0.674985E+007  0.316811E+007
  1058.95       0.128034E+007  0.791947E+011   5804.45       0.674533E+007  0.316414E+007
  1090.58       0.128034E+007  0.793628E+011   5801.93       0.674079E+007  0.316015E+007
  1122.20       0.128034E+007  0.795317E+011   5799.40       0.673623E+007  0.315613E+007
  1153.82       0.128034E+007  0.797012E+011   5796.85       0.673165E+007  0.315210E+007
  1185.45       0.128034E+007  0.798714E+011   5794.28       0.672706E+007  0.314804E+007
  1217.07       0.128034E+007  0.800420E+011   5791.71       0.672244E+007  0.314397E+007
  1248.69       0.128034E+007  0.802132E+011   5789.13       0.671781E+007  0.313987E+007
  1280.32       0.128034E+007  0.803848E+011   5786.54       0.671316E+007  0.313576E+007
  1311.94       0.128034E+007  0.805568E+011   5783.93       0.670850E+007  0.313164E+007
  1343.56       0.128034E+007  0.807292E+011   5781.32       0.670383E+007  0.312750E+007
  1375.18       0.128034E+007  0.809019E+011   5778.70       0.669914E+007  0.312335E+007
  1406.81       0.128034E+007  0.810750E+011   5776.07       0.669444E+007  0.311918E+007
  1438.43       0.128034E+007  0.812484E+011   5773.44       0.668973E+007  0.311500E+007
  1470.05       0.128034E+007  0.814220E+011   5770.79       0.668502E+007  0.311080E+007
  1501.68       0.128034E+007  0.815959E+011   5768.14       0.668029E+007  0.310660E+007
  1533.30       0.128034E+007  0.817701E+011   5765.48       0.667555E+007  0.310238E+007
  300.000       0.129231E+007  0.771263E+011   5865.03       0.687552E+007  0.325723E+007
  331.623       0.129231E+007  0.772080E+011   5863.84       0.687334E+007  0.325534E+007
  363.246       0.129231E+007  0.773003E+011   5862.49       0.687088E+007  0.325320E+007
  394.869       0.129231E+007  0.774020E+011   5861.00       0.686816E+007  0.325085E+007
  426.492       0.129231E+007  0.775120E+011   5859.39       0.686523E+007  0.324831E+007
  458.115       0.129231E+007  0.776292E+011   5857.68       0.686210E+007  0.324559E+007
  489.738       0.129231E+007  0.777528E+011   5855.87       0.685879E+007  0.324273E+007
  521.362       0.129231E+007  0.778820E+011   5853.97       0.685534E+007  0.323974E+007
  552.985       0.129231E+007  0.780161E+011   5852.00       0.685176E+007  0.323662E+007
  584.608       0.129231E+007  0.781545E+011   5849.97       0.684805E+007  0.323341E+007
  616.231       0.129231E+007  0.782967E+011   5847.88       0.684425E+007  0.323011E+007
  647.854       0.129231E+007  0.784423E+011   5845.74       0.684035E+007  0.322672E+007
  679.477       0.129231E+007  0.785908E+011   5843.55       0.683637E+007  0.322326E+007
  711.100       0.129231E+007  0.787420E+011   5841.32       0.683232E+007  0.321973E+007
  742.723       0.129231E+007  0.788956E+011   5839.05       0.682820E+007  0.321615E+007
  774.346       0.129231E+007  0.790513E+011   5836.75       0.682402E+007  0.321251E+007
  805.969       0.129231E+007  0.792088E+011   5834.42       0.681979E+007  0.320883E+007
  837.592       0.129231E+007  0.793681E+011   5832.06       0.681552E+007  0.320510E+007
  869.215       0.129231E+007  0.795288E+011   5829.68       0.681120E+007  0.320133E+007
  900.838       0.129231E+007  0.796910E+011   5827.27       0.680684E+007  0.319752E+007
  932.462       0.129231E+007  0.798543E+011   5824.84       0.680244E+007  0.319368E+007
  964.085       0.129231E+007  0.800189E+011   5822.39       0.679802E+007  0.318981E+007
  995.708       0.129231E+007  0.801844E+011   5819.93       0.679356E+007  0.318590E+007
  1027.33       0.129231E+007  0.803508E+011   5817.45       0.678908E+007  0.318197E+007
  1058.95       0.129231E+007  0.805181E+011   5814.95       0.678457E+007  0.317802E+007
  1090.58       0.129231E+007  0.806862E+011   5812.43       0.678004E+007  0.317404E+007
  1122.20       0.129231E+007  0.808550E+011   5809.91       0.677548E+007  0.317004E+007
  1153.82       0.129231E+007  0.810244E+011   5807.37       0.677091E+007  0.316602E+007
  1185.45       0.129231E+007  0.811944E+011   5804.82       0.676632E+007  0.316198E+007
  1217.07       0.129231E+007  0.813649E+011   5802.26       0.676171E+007  0.315792E+007
  1248.69       0.129231E+007  0.815360E+011   5799.68       0.675708E+007  0.315384E+007
  1280.32       0.129231E+007  0.817075E+011   5797.10       0.675244E+007  0.314975E+007
  1311.94       0.129231E+007  0.818794E+011   5794.51       0.674779E+007  0.314564E+007
  1343.56       0.129231E+007  0.820517E+011   5791.91       0.674312E+007  0.314151E+007
  1375.18       0.129231E+007  0.822244E+011   5789.30       0.673844E+007  0.313738E+007
  1406.81       0.129231E+007  0.823973E+011   5786.68       0.673375E+007  0.313322E+007
  1438.43       0.129231E+007  0.825706E+011   5784.05       0.672905E+007  0.312906E+007
  1470.05       0.129231E+007  0.827442E+011   5781.42       0.672434E+007  0.312488E+007
  1501.68       0.129231E+007  0.829180E+011   5778.78       0.671961E+007  0.312068E+007
  1533.30       0.129231E+007  0.830920E+011   5776.13       0.671488E+007  0.311648E+007
  300.000       0.130427E+007  0.784561E+011   5875.24       0.691452E+007  0.327073E+007
  331.623       0.130427E+007  0.785375E+011   5874.06       0.691235E+007  0.326885E+007
  363.246       0.130427E+007  0.786295E+011   5872.72       0.690990E+007  0.326673E+007
  394.869       0.130427E+007  0.787309E+011   5871.24       0.690720E+007  0.326439E+007
  426.492       0.130427E+007  0.788406E+011   5869.64       0.690427E+007  0.326186E+007
  458.115       0.130427E+007  0.789575E+011   5867.94       0.690115E+007  0.325916E+007
  489.738       0.130427E+007  0.790809E+011   5866.14       0.689786E+007  0.325631E+007
  521.362       0.130427E+007  0.792098E+011   5864.25       0.689441E+007  0.325333E+007
  552.985       0.130427E+007  0.793437E+011   5862.29       0.689083E+007  0.325023E+007
  584.608       0.130427E+007  0.794819E+011   5860.27       0.688714E+007  0.324703E+007
  616.231       0.130427E+007  0.796239E+011   5858.19       0.688334E+007  0.324374E+007
  647.854       0.130427E+007  0.797693E+011   5856.06       0.687945E+007  0.324037E+007
  679.477       0.130427E+007  0.799177E+011   5853.88       0.687548E+007  0.323693E+007
  711.100       0.130427E+007  0.800687E+011   5851.66       0.687144E+007  0.323342E+007
  742.723       0.130427E+007  0.802221E+011   5849.40       0.686733E+007  0.322985E+007
  774.346       0.130427E+007  0.803776E+011   5847.11       0.686316E+007  0.322622E+007
  805.969       0.130427E+007  0.805350E+011   5844.79       0.685894E+007  0.322255E+007
  837.592       0.130427E+007  0.806941E+011   5842.44       0.685467E+007  0.321884E+007
  869.215       0.130427E+007  0.808547E+011   5840.06       0.685036E+007  0.321508E+007
  900.838       0.130427E+007  0.810167E+011   5837.67       0.684600E+007  0.321129E+007
  932.462       0.130427E+007  0.811799E+011   5835.25       0.684162E+007  0.320746E+007
  964.085       0.130427E+007  0.813443E+011   5832.81       0.683720E+007  0.320360E+007
  995.708       0.130427E+007  0.815097E+011   5830.36       0.683275E+007  0.319971E+007
  1027.33       0.130427E+007  0.816761E+011   5827.88       0.682827E+007  0.319580E+007
  1058.95       0.130427E+007  0.818432E+011   5825.40       0.682377E+007  0.319186E+007
  1090.58       0.130427E+007  0.820112E+011   5822.89       0.681924E+007  0.318790E+007
  1122.20       0.130427E+007  0.821799E+011   5820.38       0.681470E+007  0.318391E+007
  1153.82       0.130427E+007  0.823492E+011   5817.85       0.681013E+007  0.317990E+007
  1185.45       0.130427E+007  0.825191E+011   5815.31       0.680554E+007  0.317588E+007
  1217.07       0.130427E+007  0.826895E+011   5812.76       0.680094E+007  0.317183E+007
  1248.69       0.130427E+007  0.828605E+011   5810.19       0.679632E+007  0.316777E+007
  1280.32       0.130427E+007  0.830319E+011   5807.62       0.679169E+007  0.316369E+007
  1311.94       0.130427E+007  0.832037E+011   5805.04       0.678704E+007  0.315960E+007
  1343.56       0.130427E+007  0.833759E+011   5802.45       0.678238E+007  0.315549E+007
  1375.18       0.130427E+007  0.835484E+011   5799.85       0.677771E+007  0.315136E+007
  1406.81       0.130427E+007  0.837213E+011   5797.24       0.677302E+007  0.314722E+007
  1438.43       0.130427E+007  0.838945E+011   5794.63       0.676833E+007  0.314307E+007
  1470.05       0.130427E+007  0.840680E+011   5792.00       0.676362E+007  0.313891E+007
  1501.68       0.130427E+007  0.842417E+011   5789.37       0.675891E+007  0.313473E+007
  1533.30       0.130427E+007  0.844157E+011   5786.73       0.675418E+007  0.313054E+007
  300.000       0.131624E+007  0.797874E+011   5885.42       0.695350E+007  0.328419E+007
  331.623       0.131624E+007  0.798686E+011   5884.24       0.695133E+007  0.328232E+007
  363.246       0.131624E+007  0.799603E+011   5882.91       0.694889E+007  0.328021E+007
  394.869       0.131624E+007  0.800614E+011   5881.44       0.694620E+007  0.327789E+007
  426.492       0.131624E+007  0.801708E+011   5879.85       0.694328E+007  0.327537E+007
  458.115       0.131624E+007  0.802875E+011   5878.15       0.694017E+007  0.327269E+007
  489.738       0.131624E+007  0.804106E+011   5876.36       0.693689E+007  0.326985E+007
  521.362       0.131624E+007  0.805393E+011   5874.49       0.693345E+007  0.326689E+007
  552.985       0.131624E+007  0.806729E+011   5872.54       0.692988E+007  0.326380E+007
  584.608       0.131624E+007  0.808109E+011   5870.53       0.692620E+007  0.326062E+007
  616.231       0.131624E+007  0.809527E+011   5868.45       0.692241E+007  0.325734E+007
  647.854       0.131624E+007  0.810979E+011   5866.33       0.691853E+007  0.325398E+007
  679.477       0.131624E+007  0.812461E+011   5864.16       0.691456E+007  0.325055E+007
  711.100       0.131624E+007  0.813969E+011   5861.95       0.691053E+007  0.324706E+007
  742.723       0.131624E+007  0.815502E+011   5859.71       0.690642E+007  0.324350E+007
  774.346       0.131624E+007  0.817055E+011   5857.42       0.690226E+007  0.323989E+007
  805.969       0.131624E+007  0.818627E+011   5855.11       0.689805E+007  0.323624E+007
  837.592       0.131624E+007  0.820217E+011   5852.77       0.689379E+007  0.323253E+007
  869.215       0.131624E+007  0.821822E+011   5850.41       0.688948E+007  0.322879E+007
  900.838       0.131624E+007  0.823440E+011   5848.02       0.688514E+007  0.322501E+007
  932.462       0.131624E+007  0.825071E+011   5845.62       0.688076E+007  0.322120E+007
  964.085       0.131624E+007  0.826714E+011   5843.19       0.687635E+007  0.321736E+007
  995.708       0.131624E+007  0.828367E+011   5840.74       0.687190E+007  0.321348E+007
  1027.33       0.131624E+007  0.830029E+011   5838.28       0.686743E+007  0.320958E+007
  1058.95       0.131624E+007  0.831700E+011   5835.80       0.686294E+007  0.320566E+007
  1090.58       0.131624E+007  0.833378E+011   5833.31       0.685842E+007  0.320171E+007
  1122.20       0.131624E+007  0.835063E+011   5830.80       0.685388E+007  0.319774E+007
  1153.82       0.131624E+007  0.836756E+011   5828.28       0.684932E+007  0.319375E+007
  1185.45       0.131624E+007  0.838454E+011   5825.75       0.684474E+007  0.318973E+007
  1217.07       0.131624E+007  0.840157E+011   5823.21       0.684014E+007  0.318570E+007
  1248.69       0.131624E+007  0.841865E+011   5820.66       0.683553E+007  0.318166E+007
  1280.32       0.131624E+007  0.843578E+011   5818.10       0.683091E+007  0.317759E+007
  1311.94       0.131624E+007  0.845296E+011   5815.53       0.682626E+007  0.317351E+007
  1343.56       0.131624E+007  0.847017E+011   5812.95       0.682161E+007  0.316942E+007
  1375.18       0.131624E+007  0.848742E+011   5810.36       0.681694E+007  0.316531E+007
  1406.81       0.131624E+007  0.850470E+011   5807.76       0.681227E+007  0.316118E+007
  1438.43       0.131624E+007  0.852201E+011   5805.15       0.680758E+007  0.315705E+007
  1470.05       0.131624E+007  0.853935E+011   5802.54       0.680288E+007  0.315290E+007
  1501.68       0.131624E+007  0.855671E+011   5799.92       0.679817E+007  0.314873E+007
  1533.30       0.131624E+007  0.857410E+011   5797.29       0.679345E+007  0.314456E+007
  300.000       0.132821E+007  0.811203E+011   5895.55       0.699244E+007  0.329761E+007
  331.623       0.132821E+007  0.812012E+011   5894.38       0.699029E+007  0.329576E+007
  363.246       0.132821E+007  0.812926E+011   5893.06       0.698785E+007  0.329366E+007
  394.869       0.132821E+007  0.813934E+011   5891.60       0.698517E+007  0.329135E+007
  426.492       0.132821E+007  0.815026E+011   5890.02       0.698226E+007  0.328885E+007
  458.115       0.132821E+007  0.816190E+011   5888.33       0.697916E+007  0.328618E+007
  489.738       0.132821E+007  0.817418E+011   5886.55       0.697589E+007  0.328335E+007
  521.362       0.132821E+007  0.818703E+011   5884.69       0.697246E+007  0.328040E+007
  552.985       0.132821E+007  0.820037E+011   5882.75       0.696890E+007  0.327733E+007
  584.608       0.132821E+007  0.821415E+011   5880.74       0.696522E+007  0.327416E+007
  616.231       0.132821E+007  0.822831E+011   5878.68       0.696144E+007  0.327090E+007
  647.854       0.132821E+007  0.824281E+011   5876.57       0.695757E+007  0.326756E+007
  679.477       0.132821E+007  0.825761E+011   5874.41       0.695361E+007  0.326414E+007
  711.100       0.132821E+007  0.827268E+011   5872.21       0.694958E+007  0.326066E+007
  742.723       0.132821E+007  0.828798E+011   5869.97       0.694549E+007  0.325712E+007
  774.346       0.132821E+007  0.830350E+011   5867.70       0.694134E+007  0.325352E+007
  805.969       0.132821E+007  0.831921E+011   5865.40       0.693713E+007  0.324988E+007
  837.592       0.132821E+007  0.833509E+011   5863.07       0.693288E+007  0.324619E+007
  869.215       0.132821E+007  0.835112E+011   5860.72       0.692858E+007  0.324247E+007
  900.838       0.132821E+007  0.836729E+011   5858.34       0.692424E+007  0.323870E+007
  932.462       0.132821E+007  0.838359E+011   5855.94       0.691987E+007  0.323490E+007
  964.085       0.132821E+007  0.840001E+011   5853.52       0.691546E+007  0.323107E+007
  995.708       0.132821E+007  0.841652E+011   5851.09       0.691103E+007  0.322721E+007
  1027.33       0.132821E+007  0.843313E+011   5848.63       0.690657E+007  0.322333E+007
  1058.95       0.132821E+007  0.844983E+011   5846.17       0.690208E+007  0.321942E+007
  1090.58       0.132821E+007  0.846660E+011   5843.68       0.689756E+007  0.321548E+007
  1122.20       0.132821E+007  0.848344E+011   5841.19       0.689303E+007  0.321153E+007
  1153.82       0.132821E+007  0.850035E+011   5838.68       0.688848E+007  0.320755E+007
  1185.45       0.132821E+007  0.851732E+011   5836.16       0.688390E+007  0.320355E+007
  1217.07       0.132821E+007  0.853435E+011   5833.63       0.687932E+007  0.319953E+007
  1248.69       0.132821E+007  0.855142E+011   5831.08       0.687471E+007  0.319550E+007
  1280.32       0.132821E+007  0.856854E+011   5828.53       0.687009E+007  0.319145E+007
  1311.94       0.132821E+007  0.858571E+011   5825.97       0.686545E+007  0.318739E+007
  1343.56       0.132821E+007  0.860291E+011   5823.40       0.686081E+007  0.318330E+007
  1375.18       0.132821E+007  0.862015E+011   5820.82       0.685615E+007  0.317921E+007
  1406.81       0.132821E+007  0.863742E+011   5818.23       0.685147E+007  0.317510E+007
  1438.43       0.132821E+007  0.865472E+011   5815.64       0.684679E+007  0.317098E+007
  1470.05       0.132821E+007  0.867205E+011   5813.04       0.684210E+007  0.316684E+007
  1501.68       0.132821E+007  0.868941E+011   5810.43       0.683740E+007  0.316270E+007
  1533.30       0.132821E+007  0.870679E+011   5807.81       0.683268E+007  0.315854E+007
  300.000       0.134017E+007  0.824547E+011   5905.65       0.703135E+007  0.331100E+007
  331.623       0.134017E+007  0.825353E+011   5904.49       0.702921E+007  0.330916E+007
  363.246       0.134017E+007  0.826265E+011   5903.17       0.702679E+007  0.330707E+007
  394.869       0.134017E+007  0.827270E+011   5901.72       0.702411E+007  0.330478E+007
  426.492       0.134017E+007  0.828359E+011   5900.15       0.702121E+007  0.330229E+007
  458.115       0.134017E+007  0.829520E+011   5898.47       0.701812E+007  0.329963E+007
  489.738       0.134017E+007  0.830746E+011   5896.70       0.701485E+007  0.329682E+007
  521.362       0.134017E+007  0.832028E+011   5894.84       0.701144E+007  0.329388E+007
  552.985       0.134017E+007  0.833360E+011   5892.91       0.700789E+007  0.329083E+007
  584.608       0.134017E+007  0.834736E+011   5890.92       0.700422E+007  0.328767E+007
  616.231       0.134017E+007  0.836150E+011   5888.87       0.700045E+007  0.328442E+007
  647.854       0.134017E+007  0.837598E+011   5886.76       0.699658E+007  0.328109E+007
  679.477       0.134017E+007  0.839076E+011   5884.61       0.699263E+007  0.327769E+007
  711.100       0.134017E+007  0.840581E+011   5882.42       0.698861E+007  0.327422E+007
  742.723       0.134017E+007  0.842110E+011   5880.19       0.698453E+007  0.327069E+007
  774.346       0.134017E+007  0.843660E+011   5877.93       0.698038E+007  0.326711E+007
  805.969       0.134017E+007  0.845230E+011   5875.64       0.697618E+007  0.326348E+007
  837.592       0.134017E+007  0.846816E+011   5873.32       0.697194E+007  0.325981E+007
  869.215       0.134017E+007  0.848418E+011   5870.98       0.696764E+007  0.325610E+007
  900.838       0.134017E+007  0.850034E+011   5868.61       0.696332E+007  0.325235E+007
  932.462       0.134017E+007  0.851663E+011   5866.22       0.695895E+007  0.324856E+007
  964.085       0.134017E+007  0.853303E+011   5863.81       0.695455E+007  0.324475E+007
  995.708       0.134017E+007  0.854953E+011   5861.39       0.695012E+007  0.324090E+007
  1027.33       0.134017E+007  0.856613E+011   5858.95       0.694567E+007  0.323703E+007
  1058.95       0.134017E+007  0.858282E+011   5856.49       0.694118E+007  0.323313E+007
  1090.58       0.134017E+007  0.859958E+011   5854.02       0.693668E+007  0.322921E+007
  1122.20       0.134017E+007  0.861641E+011   5851.53       0.693215E+007  0.322527E+007
  1153.82       0.134017E+007  0.863331E+011   5849.03       0.692760E+007  0.322131E+007
  1185.45       0.134017E+007  0.865027E+011   5846.52       0.692304E+007  0.321732E+007
  1217.07       0.134017E+007  0.866729E+011   5844.00       0.691845E+007  0.321332E+007
  1248.69       0.134017E+007  0.868435E+011   5841.47       0.691386E+007  0.320930E+007
  1280.32       0.134017E+007  0.870146E+011   5838.92       0.690924E+007  0.320527E+007
  1311.94       0.134017E+007  0.871862E+011   5836.37       0.690461E+007  0.320122E+007
  1343.56       0.134017E+007  0.873581E+011   5833.81       0.689997E+007  0.319715E+007
  1375.18       0.134017E+007  0.875304E+011   5831.24       0.689532E+007  0.319307E+007
  1406.81       0.134017E+007  0.877031E+011   5828.67       0.689065E+007  0.318897E+007
  1438.43       0.134017E+007  0.878760E+011   5826.08       0.688598E+007  0.318487E+007
  1470.05       0.134017E+007  0.880492E+011   5823.49       0.688129E+007  0.318075E+007
  1501.68       0.134017E+007  0.882227E+011   5820.89       0.687659E+007  0.317661E+007
  1533.30       0.134017E+007  0.883964E+011   5818.28       0.687189E+007  0.317247E+007
  300.000       0.135214E+007  0.837907E+011   5915.70       0.707024E+007  0.332435E+007
  331.623       0.135214E+007  0.838710E+011   5914.55       0.706810E+007  0.332252E+007
  363.246       0.135214E+007  0.839618E+011   5913.24       0.706569E+007  0.332045E+007
  394.869       0.135214E+007  0.840621E+011   5911.80       0.706302E+007  0.331816E+007
  426.492       0.135214E+007  0.841707E+011   5910.24       0.706013E+007  0.331569E+007
  458.115       0.135214E+007  0.842866E+011   5908.57       0.705705E+007  0.331304E+007
  489.738       0.135214E+007  0.844089E+011   5906.81       0.705379E+007  0.331025E+007
  521.362       0.135214E+007  0.845369E+011   5904.96       0.705039E+007  0.330732E+007
  552.985       0.135214E+007  0.846699E+011   5903.04       0.704684E+007  0.330428E+007
  584.608       0.135214E+007  0.848072E+011   5901.05       0.704318E+007  0.330114E+007
  616.231       0.135214E+007  0.849484E+011   5899.01       0.703942E+007  0.329790E+007
  647.854       0.135214E+007  0.850931E+011   5896.92       0.703556E+007  0.329459E+007
  679.477       0.135214E+007  0.852407E+011   5894.78       0.703162E+007  0.329120E+007
  711.100       0.135214E+007  0.853910E+011   5892.60       0.702761E+007  0.328774E+007
  742.723       0.135214E+007  0.855438E+011   5890.38       0.702353E+007  0.328423E+007
  774.346       0.135214E+007  0.856986E+011   5888.13       0.701939E+007  0.328067E+007
  805.969       0.135214E+007  0.858554E+011   5885.85       0.701520E+007  0.327705E+007
  837.592       0.135214E+007  0.860139E+011   5883.54       0.701096E+007  0.327339E+007
  869.215       0.135214E+007  0.861740E+011   5881.20       0.700668E+007  0.326969E+007
  900.838       0.135214E+007  0.863355E+011   5878.84       0.700236E+007  0.326596E+007
  932.462       0.135214E+007  0.864982E+011   5876.46       0.699800E+007  0.326219E+007
  964.085       0.135214E+007  0.866621E+011   5874.07       0.699361E+007  0.325838E+007
  995.708       0.135214E+007  0.868270E+011   5871.65       0.698918E+007  0.325455E+007
  1027.33       0.135214E+007  0.869929E+011   5869.22       0.698473E+007  0.325070E+007
  1058.95       0.135214E+007  0.871596E+011   5866.77       0.698026E+007  0.324681E+007
  1090.58       0.135214E+007  0.873271E+011   5864.31       0.697576E+007  0.324291E+007
  1122.20       0.135214E+007  0.874954E+011   5861.83       0.697124E+007  0.323898E+007
  1153.82       0.135214E+007  0.876643E+011   5859.34       0.696670E+007  0.323503E+007
  1185.45       0.135214E+007  0.878338E+011   5856.84       0.696214E+007  0.323106E+007
  1217.07       0.135214E+007  0.880038E+011   5854.33       0.695756E+007  0.322707E+007
  1248.69       0.135214E+007  0.881744E+011   5851.81       0.695297E+007  0.322307E+007
  1280.32       0.135214E+007  0.883454E+011   5849.27       0.694836E+007  0.321904E+007
  1311.94       0.135214E+007  0.885169E+011   5846.73       0.694374E+007  0.321501E+007
  1343.56       0.135214E+007  0.886887E+011   5844.18       0.693910E+007  0.321096E+007
  1375.18       0.135214E+007  0.888609E+011   5841.62       0.693446E+007  0.320689E+007
  1406.81       0.135214E+007  0.890335E+011   5839.05       0.692980E+007  0.320281E+007
  1438.43       0.135214E+007  0.892064E+011   5836.48       0.692513E+007  0.319871E+007
  1470.05       0.135214E+007  0.893795E+011   5833.90       0.692045E+007  0.319461E+007
  1501.68       0.135214E+007  0.895529E+011   5831.31       0.691576E+007  0.319049E+007
  1533.30       0.135214E+007  0.897265E+011   5828.71       0.691106E+007  0.318636E+007
  300.000       0.136410E+007  0.851281E+011   5925.72       0.710909E+007  0.333767E+007
  331.623       0.136410E+007  0.852081E+011   5924.58       0.710697E+007  0.333585E+007
  363.246       0.136410E+007  0.852987E+011   5923.28       0.710456E+007  0.333379E+007
  394.869       0.136410E+007  0.853987E+011   5921.84       0.710191E+007  0.333151E+007
  426.492       0.136410E+007  0.855070E+011   5920.29       0.709903E+007  0.332905E+007
  458.115       0.136410E+007  0.856227E+011   5918.63       0.709595E+007  0.332642E+007
  489.738       0.136410E+007  0.857448E+011   5916.88       0.709270E+007  0.332364E+007
  521.362       0.136410E+007  0.858725E+011   5915.04       0.708931E+007  0.332073E+007
  552.985       0.136410E+007  0.860053E+011   5913.13       0.708577E+007  0.331770E+007
  584.608       0.136410E+007  0.861424E+011   5911.15       0.708212E+007  0.331457E+007
  616.231       0.136410E+007  0.862834E+011   5909.12       0.707836E+007  0.331135E+007
  647.854       0.136410E+007  0.864279E+011   5907.03       0.707452E+007  0.330805E+007
  679.477       0.136410E+007  0.865753E+011   5904.90       0.707058E+007  0.330467E+007
  711.100       0.136410E+007  0.867255E+011   5902.73       0.706658E+007  0.330123E+007
  742.723       0.136410E+007  0.868781E+011   5900.52       0.706251E+007  0.329773E+007
  774.346       0.136410E+007  0.870328E+011   5898.28       0.705838E+007  0.329418E+007
  805.969       0.136410E+007  0.871894E+011   5896.01       0.705419E+007  0.329058E+007
  837.592       0.136410E+007  0.873478E+011   5893.71       0.704996E+007  0.328693E+007
  869.215       0.136410E+007  0.875077E+011   5891.38       0.704568E+007  0.328325E+007
  900.838       0.136410E+007  0.876691E+011   5889.04       0.704137E+007  0.327952E+007
  932.462       0.136410E+007  0.878317E+011   5886.67       0.703702E+007  0.327577E+007
  964.085       0.136410E+007  0.879954E+011   5884.28       0.703263E+007  0.327198E+007
  995.708       0.136410E+007  0.881602E+011   5881.87       0.702821E+007  0.326816E+007
  1027.33       0.136410E+007  0.883260E+011   5879.45       0.702377E+007  0.326432E+007
  1058.95       0.136410E+007  0.884926E+011   5877.01       0.701930E+007  0.326045E+007
  1090.58       0.136410E+007  0.886600E+011   5874.56       0.701481E+007  0.325656E+007
  1122.20       0.136410E+007  0.888282E+011   5872.09       0.701030E+007  0.325264E+007
  1153.82       0.136410E+007  0.889970E+011   5869.61       0.700576E+007  0.324871E+007
  1185.45       0.136410E+007  0.891664E+011   5867.12       0.700121E+007  0.324475E+007
  1217.07       0.136410E+007  0.893364E+011   5864.62       0.699664E+007  0.324078E+007
  1248.69       0.136410E+007  0.895068E+011   5862.10       0.699205E+007  0.323679E+007
  1280.32       0.136410E+007  0.896778E+011   5859.58       0.698745E+007  0.323278E+007
  1311.94       0.136410E+007  0.898491E+011   5857.05       0.698283E+007  0.322876E+007
  1343.56       0.136410E+007  0.900209E+011   5854.51       0.697820E+007  0.322472E+007
  1375.18       0.136410E+007  0.901930E+011   5851.96       0.697356E+007  0.322067E+007
  1406.81       0.136410E+007  0.903655E+011   5849.40       0.696891E+007  0.321660E+007
  1438.43       0.136410E+007  0.905383E+011   5846.84       0.696425E+007  0.321252E+007
  1470.05       0.136410E+007  0.907114E+011   5844.26       0.695957E+007  0.320843E+007
  1501.68       0.136410E+007  0.908847E+011   5841.68       0.695489E+007  0.320433E+007
  1533.30       0.136410E+007  0.910582E+011   5839.10       0.695020E+007  0.320021E+007
  300.000       0.137607E+007  0.864670E+011   5935.70       0.714792E+007  0.335094E+007
  331.623       0.137607E+007  0.865468E+011   5934.56       0.714580E+007  0.334913E+007
  363.246       0.137607E+007  0.866371E+011   5933.27       0.714341E+007  0.334709E+007
  394.869       0.137607E+007  0.867368E+011   5931.85       0.714076E+007  0.334483E+007
  426.492       0.137607E+007  0.868448E+011   5930.30       0.713789E+007  0.334238E+007
  458.115       0.137607E+007  0.869602E+011   5928.65       0.713482E+007  0.333976E+007
  489.738       0.137607E+007  0.870821E+011   5926.91       0.713159E+007  0.333699E+007
  521.362       0.137607E+007  0.872096E+011   5925.08       0.712820E+007  0.333409E+007
  552.985       0.137607E+007  0.873422E+011   5923.18       0.712467E+007  0.333108E+007
  584.608       0.137607E+007  0.874791E+011   5921.21       0.712103E+007  0.332796E+007
  616.231       0.137607E+007  0.876199E+011   5919.19       0.711728E+007  0.332475E+007
  647.854       0.137607E+007  0.877642E+011   5917.11       0.711344E+007  0.332147E+007
  679.477       0.137607E+007  0.879115E+011   5914.99       0.710951E+007  0.331810E+007
  711.100       0.137607E+007  0.880615E+011   5912.83       0.710552E+007  0.331468E+007
  742.723       0.137607E+007  0.882139E+011   5910.63       0.710145E+007  0.331119E+007
  774.346       0.137607E+007  0.883684E+011   5908.39       0.709733E+007  0.330765E+007
  805.969       0.137607E+007  0.885249E+011   5906.13       0.709315E+007  0.330407E+007
  837.592       0.137607E+007  0.886832E+011   5903.84       0.708893E+007  0.330043E+007
  869.215       0.137607E+007  0.888430E+011   5901.53       0.708466E+007  0.329676E+007
  900.838       0.137607E+007  0.890042E+011   5899.19       0.708035E+007  0.329305E+007
  932.462       0.137607E+007  0.891667E+011   5896.83       0.707600E+007  0.328931E+007
  964.085       0.137607E+007  0.893303E+011   5894.45       0.707162E+007  0.328554E+007
  995.708       0.137607E+007  0.894950E+011   5892.05       0.706722E+007  0.328173E+007
  1027.33       0.137607E+007  0.896607E+011   5889.64       0.706278E+007  0.327790E+007
  1058.95       0.137607E+007  0.898272E+011   5887.21       0.705832E+007  0.327405E+007
  1090.58       0.137607E+007  0.899945E+011   5884.76       0.705383E+007  0.327017E+007
  1122.20       0.137607E+007  0.901625E+011   5882.31       0.704932E+007  0.326627E+007
  1153.82       0.137607E+007  0.903312E+011   5879.84       0.704479E+007  0.326235E+007
  1185.45       0.137607E+007  0.905006E+011   5877.36       0.704025E+007  0.325841E+007
  1217.07       0.137607E+007  0.906704E+011   5874.86       0.703568E+007  0.325445E+007
  1248.69       0.137607E+007  0.908408E+011   5872.36       0.703110E+007  0.325047E+007
  1280.32       0.137607E+007  0.910117E+011   5869.85       0.702651E+007  0.324648E+007
  1311.94       0.137607E+007  0.911829E+011   5867.33       0.702190E+007  0.324247E+007
  1343.56       0.137607E+007  0.913546E+011   5864.79       0.701727E+007  0.323844E+007
  1375.18       0.137607E+007  0.915267E+011   5862.25       0.701264E+007  0.323440E+007
  1406.81       0.137607E+007  0.916991E+011   5859.71       0.700799E+007  0.323035E+007
  1438.43       0.137607E+007  0.918718E+011   5857.15       0.700333E+007  0.322629E+007
  1470.05       0.137607E+007  0.920448E+011   5854.59       0.699867E+007  0.322221E+007
  1501.68       0.137607E+007  0.922180E+011   5852.02       0.699399E+007  0.321812E+007
  1533.30       0.137607E+007  0.923915E+011   5849.44       0.698930E+007  0.321402E+007
  300.000       0.138803E+007  0.878074E+011   5945.64       0.718672E+007  0.336418E+007
  331.623       0.138803E+007  0.878869E+011   5944.51       0.718461E+007  0.336239E+007
  363.246       0.138803E+007  0.879769E+011   5943.23       0.718222E+007  0.336035E+007
  394.869       0.138803E+007  0.880764E+011   5941.81       0.717958E+007  0.335810E+007
  426.492       0.138803E+007  0.881841E+011   5940.28       0.717672E+007  0.335566E+007
  458.115       0.138803E+007  0.882993E+011   5938.63       0.717367E+007  0.335306E+007
  489.738       0.138803E+007  0.884209E+011   5936.90       0.717044E+007  0.335030E+007
  521.362       0.138803E+007  0.885482E+011   5935.08       0.716706E+007  0.334742E+007
  552.985       0.138803E+007  0.886806E+011   5933.19       0.716354E+007  0.334442E+007
  584.608       0.138803E+007  0.888173E+011   5931.23       0.715990E+007  0.334132E+007
  616.231       0.138803E+007  0.889579E+011   5929.21       0.715617E+007  0.333812E+007
  647.854       0.138803E+007  0.891020E+011   5927.15       0.715233E+007  0.333485E+007
  679.477       0.138803E+007  0.892491E+011   5925.04       0.714842E+007  0.333150E+007
  711.100       0.138803E+007  0.893989E+011   5922.88       0.714443E+007  0.332809E+007
  742.723       0.138803E+007  0.895512E+011   5920.69       0.714037E+007  0.332462E+007
  774.346       0.138803E+007  0.897056E+011   5918.47       0.713625E+007  0.332109E+007
  805.969       0.138803E+007  0.898619E+011   5916.22       0.713208E+007  0.331752E+007
  837.592       0.138803E+007  0.900200E+011   5913.94       0.712786E+007  0.331390E+007
  869.215       0.138803E+007  0.901797E+011   5911.63       0.712360E+007  0.331024E+007
  900.838       0.138803E+007  0.903408E+011   5909.30       0.711930E+007  0.330655E+007
  932.462       0.138803E+007  0.905032E+011   5906.95       0.711496E+007  0.330282E+007
  964.085       0.138803E+007  0.906667E+011   5904.58       0.711059E+007  0.329906E+007
  995.708       0.138803E+007  0.908313E+011   5902.19       0.710619E+007  0.329527E+007
  1027.33       0.138803E+007  0.909968E+011   5899.79       0.710176E+007  0.329145E+007
  1058.95       0.138803E+007  0.911632E+011   5897.37       0.709730E+007  0.328761E+007
  1090.58       0.138803E+007  0.913305E+011   5894.93       0.709282E+007  0.328374E+007
  1122.20       0.138803E+007  0.914984E+011   5892.49       0.708832E+007  0.327986E+007
  1153.82       0.138803E+007  0.916670E+011   5890.03       0.708380E+007  0.327595E+007
  1185.45       0.138803E+007  0.918362E+011   5887.55       0.707926E+007  0.327202E+007
  1217.07       0.138803E+007  0.920060E+011   5885.07       0.707470E+007  0.326807E+007
  1248.69       0.138803E+007  0.921763E+011   5882.58       0.707012E+007  0.326411E+007
  1280.32       0.138803E+007  0.923471E+011   5880.07       0.706553E+007  0.326013E+007
  1311.94       0.138803E+007  0.925183E+011   5877.56       0.706093E+007  0.325614E+007
  1343.56       0.138803E+007  0.926899E+011   5875.04       0.705631E+007  0.325213E+007
  1375.18       0.138803E+007  0.928619E+011   5872.51       0.705168E+007  0.324810E+007
  1406.81       0.138803E+007  0.930342E+011   5869.97       0.704704E+007  0.324406E+007
  1438.43       0.138803E+007  0.932068E+011   5867.42       0.704239E+007  0.324001E+007
  1470.05       0.138803E+007  0.933797E+011   5864.87       0.703773E+007  0.323595E+007
  1501.68       0.138803E+007  0.935529E+011   5862.31       0.703306E+007  0.323187E+007
  1533.30       0.138803E+007  0.937263E+011   5859.74       0.702837E+007  0.322778E+007
  300.000       0.140000E+007  0.891493E+011   5955.55       0.722549E+007  0.337739E+007
  331.623       0.140000E+007  0.892285E+011   5954.43       0.722339E+007  0.337560E+007
  363.246       0.140000E+007  0.893182E+011   5953.15       0.722101E+007  0.337358E+007
  394.869       0.140000E+007  0.894174E+011   5951.74       0.721838E+007  0.337134E+007
  426.492       0.140000E+007  0.895249E+011   5950.21       0.721553E+007  0.336892E+007
  458.115       0.140000E+007  0.896398E+011   5948.58       0.721248E+007  0.336632E+007
  489.738       0.140000E+007  0.897612E+011   5946.85       0.720926E+007  0.336358E+007
  521.362       0.140000E+007  0.898883E+011   5945.04       0.720589E+007  0.336071E+007
  552.985       0.140000E+007  0.900204E+011   5943.16       0.720238E+007  0.335773E+007
  584.608       0.140000E+007  0.901569E+011   5941.21       0.719875E+007  0.335464E+007
  616.231       0.140000E+007  0.902974E+011   5939.21       0.719502E+007  0.335146E+007
  647.854       0.140000E+007  0.904413E+011   5937.15       0.719120E+007  0.334819E+007
  679.477       0.140000E+007  0.905882E+011   5935.05       0.718729E+007  0.334486E+007
  711.100       0.140000E+007  0.907379E+011   5932.90       0.718331E+007  0.334146E+007
  742.723       0.140000E+007  0.908900E+011   5930.72       0.717926E+007  0.333800E+007
  774.346       0.140000E+007  0.910442E+011   5928.51       0.717515E+007  0.333449E+007
  805.969       0.140000E+007  0.912005E+011   5926.26       0.717098E+007  0.333093E+007
  837.592       0.140000E+007  0.913584E+011   5923.99       0.716677E+007  0.332732E+007
  869.215       0.140000E+007  0.915180E+011   5921.69       0.716252E+007  0.332368E+007
  900.838       0.140000E+007  0.916789E+011   5919.37       0.715822E+007  0.332000E+007
  932.462       0.140000E+007  0.918412E+011   5917.03       0.715389E+007  0.331628E+007
  964.085       0.140000E+007  0.920046E+011   5914.67       0.714952E+007  0.331254E+007
  995.708       0.140000E+007  0.921691E+011   5912.29       0.714513E+007  0.330876E+007
  1027.33       0.140000E+007  0.923345E+011   5909.90       0.714070E+007  0.330496E+007
  1058.95       0.140000E+007  0.925008E+011   5907.49       0.713625E+007  0.330113E+007
  1090.58       0.140000E+007  0.926679E+011   5905.06       0.713178E+007  0.329728E+007
  1122.20       0.140000E+007  0.928358E+011   5902.62       0.712729E+007  0.329340E+007
  1153.82       0.140000E+007  0.930043E+011   5900.17       0.712277E+007  0.328951E+007
  1185.45       0.140000E+007  0.931734E+011   5897.71       0.711824E+007  0.328560E+007
  1217.07       0.140000E+007  0.933431E+011   5895.24       0.711368E+007  0.328166E+007
  1248.69       0.140000E+007  0.935134E+011   5892.75       0.710911E+007  0.327771E+007
  1280.32       0.140000E+007  0.936840E+011   5890.26       0.710453E+007  0.327375E+007
  1311.94       0.140000E+007  0.938552E+011   5887.76       0.709993E+007  0.326977E+007
  1343.56       0.140000E+007  0.940267E+011   5885.24       0.709532E+007  0.326577E+007
  1375.18       0.140000E+007  0.941986E+011   5882.72       0.709070E+007  0.326176E+007
  1406.81       0.140000E+007  0.943708E+011   5880.19       0.708606E+007  0.325773E+007
  1438.43       0.140000E+007  0.945434E+011   5877.66       0.708142E+007  0.325370E+007
  1470.05       0.140000E+007  0.947162E+011   5875.11       0.707676E+007  0.324965E+007
  1501.68       0.140000E+007  0.948893E+011   5872.56       0.707209E+007  0.324558E+007
  1533.30       0.140000E+007  0.950627E+011   5870.01       0.706742E+007  0.324151E+007
