|6.6.6
primRef_quadrant0_1.tab                                                                             
           2
T(K)    
   300.00000000000000     
   47.435897435897438     
          40
P(bar)  
   1.0000000000000000     
   17948.692307692309     
          40
           6
T(K)           P(bar)         mode           rho,kg/m3      Ks,bar         Gs,bar        
  300.000        1.00000      -0.403600E+011   3140.54        922659.        611573.     
  347.436        1.00000      -0.401983E+011   3138.27        919858.        607679.     
  394.872        1.00000      -0.400258E+011   3135.84        916856.        603531.     
  442.308        1.00000      -0.398452E+011   3133.28        913696.        599194.     
  489.744        1.00000      -0.396585E+011   3130.61        910409.        594713.     
  537.179        1.00000      -0.394670E+011   3127.86        907013.        590120.     
  584.615        1.00000      -0.392718E+011   3125.02        903524.        585438.     
  632.051        1.00000      -0.390734E+011   3122.12        899951.        580683.     
  679.487        1.00000      -0.388725E+011   3119.16        896302.        575867.     
  726.923        1.00000      -0.386695E+011   3116.14        892581.        571001.     
  774.359        1.00000      -0.384646E+011   3113.06        888793.        566089.     
  821.795        1.00000      -0.382582E+011   3109.93        884938.        561139.     
  869.231        1.00000      -0.380502E+011   3106.74        881019.        556154.     
  916.667        1.00000      -0.378410E+011   3103.51        877037.        551138.     
  964.103        1.00000      -0.376307E+011   3100.22        872990.        546092.     
  1011.54        1.00000      -0.374192E+011   3096.89        868880.        541019.     
  1058.97        1.00000      -0.372067E+011   3093.50        864705.        535921.     
  1106.41        1.00000      -0.369933E+011   3090.07        860464.        530797.     
  1153.85        1.00000      -0.367790E+011   3086.58        856156.        525650.     
  1201.28        1.00000      -0.365637E+011   3083.03        851778.        520479.     
  1248.72        1.00000      -0.363476E+011   3079.44        847329.        515285.     
  1296.15        1.00000      -0.361306E+011   3075.78        842805.        510068.     
  1343.59        1.00000      -0.359128E+011   3072.07        838205.        504827.     
  1391.03        1.00000      -0.356941E+011   3068.30        833524.        499563.     
  1438.46        1.00000      -0.354745E+011   3064.47        828759.        494274.     
  1485.90        1.00000      -0.352541E+011   3060.58        823907.        488961.     
  1533.33        1.00000      -0.350327E+011   3056.62        818962.        483622.     
  1580.77        1.00000      -0.348105E+011   3052.59        813919.        478256.     
  1628.21        1.00000      -0.345873E+011   3048.49        808773.        472862.     
  1675.64        1.00000      -0.360484E+011   3196.49        665396.        525532.     
  1723.08        1.00000      -0.357618E+011   3187.99        647791.        518882.     
  1770.51        1.00000      -0.354711E+011   3179.15        629726.        512159.     
  1817.95        1.00000      -0.351759E+011   3169.94        611151.        505354.     
  1865.38        1.00000      -0.348754E+011   3160.31        592009.        498456.     
  1912.82        1.00000      -0.345692E+011   3150.22        572228.        491453.     
  1960.26        1.00000      -0.342564E+011   3139.60        551719.        484329.     
  2007.69        1.00000      -0.339358E+011   3128.36        530374.        477063.     
  2055.13        1.00000      -0.336063E+011   3116.42        508048.        469629.     
  2102.56        1.00000      -0.332659E+011   3103.63        484550.        461994.     
  2150.00        1.00000      -0.329122E+011   3089.82        459617.        454110.     
  300.000        17949.7      -0.421360E+011   3418.67       0.118537E+007   726740.     
  347.436        17949.7      -0.419556E+011   3415.65       0.117651E+007   722202.     
  394.872        17949.7      -0.417626E+011   3412.39       0.116702E+007   717359.     
  442.308        17949.7      -0.415604E+011   3408.95       0.115702E+007   712293.     
  489.744        17949.7      -0.413511E+011   3405.35       0.114664E+007   707057.     
  537.179        17949.7      -0.411362E+011   3401.61       0.113594E+007   701691.     
  584.615        17949.7      -0.409169E+011   3397.76       0.112497E+007   696222.     
  632.051        17949.7      -0.406939E+011   3393.80       0.111376E+007   690670.     
  679.487        17949.7      -0.404679E+011   3389.74       0.110235E+007   685051.     
  726.923        17949.7      -0.402078E+011   3382.99       0.108480E+007   677676.     
  774.359        17949.7      -0.399774E+011   3378.76       0.107314E+007   671968.     
  821.795        17949.7      -0.397449E+011   3374.45       0.106132E+007   666219.     
  869.231        17949.7      -0.395107E+011   3370.05       0.104935E+007   660435.     
  916.667        17949.7      -0.392748E+011   3365.56       0.103723E+007   654619.     
  964.103        17949.7      -0.390375E+011   3360.98       0.102496E+007   648775.     
  1011.54        17949.7      -0.387987E+011   3356.32       0.101255E+007   642905.     
  1058.97        17949.7      -0.385586E+011   3351.57        999991.        637011.     
  1106.41        17949.7      -0.383171E+011   3346.72        987290.        631094.     
  1153.85        17949.7      -0.380744E+011   3341.78        974444.        625156.     
  1201.28        17949.7      -0.378305E+011   3336.75        961450.        619197.     
  1248.72        17949.7      -0.375852E+011   3331.61        948304.        613218.     
  1296.15        17949.7      -0.373388E+011   3326.37        935002.        607218.     
  1343.59        17949.7      -0.370910E+011   3321.02        921541.        601198.     
  1391.03        17949.7      -0.368420E+011   3315.56        907915.        595157.     
  1438.46        17949.7      -0.365916E+011   3309.99        894117.        589095.     
  1485.90        17949.7      -0.363399E+011   3304.29        880140.        583011.     
  1533.33        17949.7      -0.360867E+011   3298.46        865978.        576905.     
  1580.77        17949.7      -0.358321E+011   3292.50        851620.        570775.     
  1628.21        17949.7      -0.355758E+011   3286.40        837057.        564620.     
  1675.64        17949.7      -0.353180E+011   3280.15        822279.        558439.     
  1723.08        17949.7      -0.350584E+011   3273.74        807273.        552229.     
  1770.51        17949.7      -0.347970E+011   3267.16        792025.        545989.     
  1817.95        17949.7      -0.345335E+011   3260.40        776519.        539717.     
  1865.38        17949.7      -0.342680E+011   3253.45        760742.        533409.     
  1912.82        17949.7      -0.340002E+011   3246.29        744669.        527063.     
  1960.26        17949.7      -0.337300E+011   3238.91        728281.        520675.     
  2007.69        17949.7      -0.334571E+011   3231.29        711553.        514241.     
  2055.13        17949.7      -0.331812E+011   3223.42        694454.        507757.     
  2102.56        17949.7      -0.329022E+011   3215.26        676952.        501216.     
  2150.00        17949.7      -0.326197E+011   3206.79        659007.        494613.     
  300.000        35898.4      -0.410243E+011   3474.50       0.131023E+007   762587.     
  347.436        35898.4      -0.407757E+011   3465.85       0.129626E+007   748601.     
  394.872        35898.4      -0.405876E+011   3462.98       0.128726E+007   743810.     
  442.308        35898.4      -0.403903E+011   3459.94       0.127778E+007   738795.     
  489.744        35898.4      -0.401860E+011   3456.76       0.126794E+007   733611.     
  537.179        35898.4      -0.399764E+011   3453.48       0.125780E+007   728297.     
  584.615        35898.4      -0.397625E+011   3450.09       0.124741E+007   722882.     
  632.051        35898.4      -0.395452E+011   3446.62       0.123681E+007   717386.     
  679.487        35898.4      -0.393250E+011   3443.06       0.122603E+007   711825.     
  726.923        35898.4      -0.391024E+011   3439.43       0.121509E+007   706210.     
  774.359        35898.4      -0.388777E+011   3435.73       0.120399E+007   700551.     
  821.795        35898.4      -0.386513E+011   3431.95       0.119276E+007   694854.     
  869.231        35898.4      -0.384234E+011   3428.11       0.118140E+007   689126.     
  916.667        35898.4      -0.381940E+011   3424.21       0.116992E+007   683369.     
  964.103        35898.4      -0.379634E+011   3420.23       0.115831E+007   677588.     
  1011.54        35898.4      -0.377317E+011   3416.19       0.114659E+007   671786.     
  1058.97        35898.4      -0.374988E+011   3412.09       0.113476E+007   665964.     
  1106.41        35898.4      -0.372650E+011   3407.92       0.112282E+007   660125.     
  1153.85        35898.4      -0.370302E+011   3403.68       0.111076E+007   654270.     
  1201.28        35898.4      -0.367945E+011   3399.37       0.109859E+007   648400.     
  1248.72        35898.4      -0.365579E+011   3394.99       0.108631E+007   642515.     
  1296.15        35898.4      -0.363205E+011   3390.53       0.107392E+007   636617.     
  1343.59        35898.4      -0.360821E+011   3386.01       0.106141E+007   630707.     
  1391.03        35898.4      -0.358430E+011   3381.40       0.104878E+007   624783.     
  1438.46        35898.4      -0.356029E+011   3376.72       0.103602E+007   618847.     
  1485.90        35898.4      -0.353621E+011   3371.95       0.102315E+007   612899.     
  1533.33        35898.4      -0.351203E+011   3367.10       0.101014E+007   606937.     
  1580.77        35898.4      -0.348776E+011   3362.17        997016.        600964.     
  1628.21        35898.4      -0.346341E+011   3357.14        983736.        594977.     
  1675.64        35898.4      -0.343896E+011   3352.01        970317.        588976.     
  1723.08        35898.4      -0.341441E+011   3346.79        956754.        582961.     
  1770.51        35898.4      -0.338976E+011   3341.47        943038.        576932.     
  1817.95        35898.4      -0.336291E+011   3334.15        925284.        569342.     
  1865.38        35898.4      -0.333808E+011   3328.62        911327.        563292.     
  1912.82        35898.4      -0.331313E+011   3322.98        897193.        557224.     
  1960.26        35898.4      -0.328805E+011   3317.21        882874.        551139.     
  2007.69        35898.4      -0.326285E+011   3311.30        868361.        545033.     
  2055.13        35898.4      -0.323751E+011   3305.26        853643.        538906.     
  2102.56        35898.4      -0.321203E+011   3299.07        838706.        532756.     
  2150.00        35898.4      -0.318639E+011   3292.73        823540.        526581.     
  300.000        53847.1      -0.409085E+011   3615.24       0.149439E+007   929082.     
  347.436        53847.1      -0.407156E+011   3611.26       0.148797E+007   923915.     
  394.872        53847.1      -0.405081E+011   3606.97       0.148106E+007   918355.     
  442.308        53847.1      -0.402899E+011   3602.43       0.147378E+007   912501.     
  489.744        53847.1      -0.400635E+011   3597.70       0.146624E+007   906421.     
  537.179        53847.1      -0.398308E+011   3592.83       0.145848E+007   900164.     
  584.615        53847.1      -0.395931E+011   3587.82       0.145055E+007   893766.     
  632.051        53847.1      -0.393515E+011   3582.71       0.144249E+007   887252.     
  679.487        53847.1      -0.391066E+011   3577.51       0.143432E+007   880643.     
  726.923        53847.1      -0.388591E+011   3572.22       0.142605E+007   873954.     
  774.359        53847.1      -0.380603E+011   3519.56       0.136369E+007   783786.     
  821.795        53847.1      -0.374408E+011   3482.10       0.131408E+007   720360.     
  869.231        53847.1      -0.372175E+011   3478.71       0.130329E+007   714666.     
  916.667        53847.1      -0.369930E+011   3475.26       0.129239E+007   708946.     
  964.103        53847.1      -0.367673E+011   3471.76       0.128139E+007   703203.     
  1011.54        53847.1      -0.365407E+011   3468.21       0.127029E+007   697442.     
  1058.97        53847.1      -0.363131E+011   3464.61       0.125910E+007   691663.     
  1106.41        53847.1      -0.360847E+011   3460.95       0.124782E+007   685871.     
  1153.85        53847.1      -0.358555E+011   3457.24       0.123645E+007   680064.     
  1201.28        53847.1      -0.356256E+011   3453.48       0.122499E+007   674247.     
  1248.72        53847.1      -0.353951E+011   3449.67       0.121343E+007   668418.     
  1296.15        53847.1      -0.351638E+011   3445.81       0.120179E+007   662579.     
  1343.59        53847.1      -0.349320E+011   3441.88       0.119006E+007   656732.     
  1391.03        53847.1      -0.346995E+011   3437.90       0.117824E+007   650876.     
  1438.46        53847.1      -0.344664E+011   3433.87       0.116632E+007   645011.     
  1485.90        53847.1      -0.342327E+011   3429.77       0.115431E+007   639139.     
  1533.33        53847.1      -0.339985E+011   3425.62       0.114220E+007   633260.     
  1580.77        53847.1      -0.337636E+011   3421.40       0.113000E+007   627373.     
  1628.21        53847.1      -0.335282E+011   3417.12       0.111769E+007   621479.     
  1675.64        53847.1      -0.332921E+011   3412.77       0.110529E+007   615577.     
  1723.08        53847.1      -0.330555E+011   3408.36       0.109278E+007   609668.     
  1770.51        53847.1      -0.328182E+011   3403.87       0.108016E+007   603751.     
  1817.95        53847.1      -0.325803E+011   3399.31       0.106742E+007   597827.     
  1865.38        53847.1      -0.323418E+011   3394.68       0.105457E+007   591895.     
  1912.82        53847.1      -0.321026E+011   3389.97       0.104161E+007   585954.     
  1960.26        53847.1      -0.318627E+011   3385.17       0.102851E+007   580004.     
  2007.69        53847.1      -0.316221E+011   3380.29       0.101529E+007   574045.     
  2055.13        53847.1      -0.313807E+011   3375.33       0.100194E+007   568077.     
  2102.56        53847.1      -0.311385E+011   3370.27        988442.        562098.     
  2150.00        53847.1      -0.308955E+011   3365.12        974802.        556108.     
  300.000        71795.8      -0.400457E+011   3697.00       0.167111E+007   999300.     
  347.436        71795.8      -0.395083E+011   3662.91       0.160264E+007   961374.     
  394.872        71795.8      -0.392842E+011   3657.07       0.159228E+007   954031.     
  442.308        71795.8      -0.390692E+011   3652.75       0.158510E+007   948242.     
  489.744        71795.8      -0.388460E+011   3648.24       0.157763E+007   942225.     
  537.179        71795.8      -0.386165E+011   3643.59       0.156996E+007   936028.     
  584.615        71795.8      -0.383819E+011   3638.82       0.156211E+007   929689.     
  632.051        71795.8      -0.381433E+011   3633.94       0.155413E+007   923233.     
  679.487        71795.8      -0.379015E+011   3628.98       0.154603E+007   916682.     
  726.923        71795.8      -0.376571E+011   3623.94       0.153785E+007   910049.     
  774.359        71795.8      -0.374104E+011   3618.83       0.152959E+007   903348.     
  821.795        71795.8      -0.370856E+011   3606.72       0.151443E+007   890522.     
  869.231        71795.8      -0.368362E+011   3601.52       0.150611E+007   883759.     
  916.667        71795.8      -0.365854E+011   3596.27       0.149775E+007   876950.     
  964.103        71795.8      -0.363334E+011   3590.97       0.148935E+007   870100.     
  1011.54        71795.8      -0.360805E+011   3585.62       0.148091E+007   863213.     
  1058.97        71795.8      -0.358266E+011   3580.23       0.147244E+007   856291.     
  1106.41        71795.8      -0.355720E+011   3574.79       0.146395E+007   849338.     
  1153.85        71795.8      -0.353167E+011   3569.32       0.145542E+007   842356.     
  1201.28        71795.8      -0.350607E+011   3563.80       0.144687E+007   835345.     
  1248.72        71795.8      -0.341486E+011   3499.55       0.133587E+007   692900.     
  1296.15        71795.8      -0.339217E+011   3496.13       0.132482E+007   687086.     
  1343.59        71795.8      -0.336943E+011   3492.67       0.131369E+007   681265.     
  1391.03        71795.8      -0.334664E+011   3489.16       0.130249E+007   675438.     
  1438.46        71795.8      -0.332380E+011   3485.62       0.129122E+007   669605.     
  1485.90        71795.8      -0.330092E+011   3482.02       0.127987E+007   663766.     
  1533.33        71795.8      -0.327800E+011   3478.38       0.126845E+007   657923.     
  1580.77        71795.8      -0.325504E+011   3474.70       0.125695E+007   652076.     
  1628.21        71795.8      -0.323203E+011   3470.97       0.124537E+007   646224.     
  1675.64        71795.8      -0.320899E+011   3467.18       0.123371E+007   640369.     
  1723.08        71795.8      -0.318590E+011   3463.35       0.122198E+007   634509.     
  1770.51        71795.8      -0.316278E+011   3459.47       0.121016E+007   628646.     
  1817.95        71795.8      -0.313961E+011   3455.53       0.119825E+007   622778.     
  1865.38        71795.8      -0.311640E+011   3451.54       0.118627E+007   616907.     
  1912.82        71795.8      -0.309315E+011   3447.50       0.117419E+007   611032.     
  1960.26        71795.8      -0.306986E+011   3443.39       0.116202E+007   605153.     
  2007.69        71795.8      -0.304652E+011   3439.23       0.114976E+007   599270.     
  2055.13        71795.8      -0.302314E+011   3435.01       0.113740E+007   593383.     
  2102.56        71795.8      -0.299972E+011   3430.72       0.112495E+007   587491.     
  2150.00        71795.8      -0.297624E+011   3426.37       0.111239E+007   581595.     
  300.000        89744.5      -0.391693E+011   3779.19       0.186345E+007  0.107623E+007
  347.436        89744.5      -0.389337E+011   3771.47       0.184761E+007  0.106574E+007
  394.872        89744.5      -0.386555E+011   3761.02       0.182618E+007  0.105215E+007
  442.308        89744.5      -0.383345E+011   3747.54       0.179868E+007  0.103530E+007
  489.744        89744.5      -0.379700E+011   3730.70       0.176467E+007  0.101506E+007
  537.179        89744.5      -0.375601E+011   3710.16       0.172373E+007   991308.     
  584.615        89744.5      -0.371014E+011   3685.49       0.167532E+007   963850.     
  632.051        89744.5      -0.368078E+011   3675.66       0.165715E+007   952160.     
  679.487        89744.5      -0.365691E+011   3670.93       0.164918E+007   945702.     
  726.923        89744.5      -0.363278E+011   3666.12       0.164112E+007   939163.     
  774.359        89744.5      -0.360843E+011   3661.26       0.163299E+007   932556.     
  821.795        89744.5      -0.358390E+011   3656.33       0.162479E+007   925890.     
  869.231        89744.5      -0.355921E+011   3651.35       0.161653E+007   919173.     
  916.667        89744.5      -0.353439E+011   3646.32       0.160823E+007   912410.     
  964.103        89744.5      -0.350945E+011   3641.25       0.159989E+007   905606.     
  1011.54        89744.5      -0.348441E+011   3636.13       0.159152E+007   898765.     
  1058.97        89744.5      -0.345929E+011   3630.97       0.158311E+007   891891.     
  1106.41        89744.5      -0.343410E+011   3625.78       0.157467E+007   884986.     
  1153.85        89744.5      -0.340883E+011   3620.55       0.156621E+007   878053.     
  1201.28        89744.5      -0.338351E+011   3615.28       0.155773E+007   871092.     
  1248.72        89744.5      -0.335814E+011   3609.97       0.154922E+007   864107.     
  1296.15        89744.5      -0.333271E+011   3604.63       0.154070E+007   857097.     
  1343.59        89744.5      -0.330725E+011   3599.25       0.153216E+007   850065.     
  1391.03        89744.5      -0.327490E+011   3587.26       0.151733E+007   837404.     
  1438.46        89744.5      -0.324943E+011   3581.84       0.150883E+007   830382.     
  1485.90        89744.5      -0.322392E+011   3576.39       0.150031E+007   823340.     
  1533.33        89744.5      -0.319838E+011   3570.91       0.149179E+007   816278.     
  1580.77        89744.5      -0.317282E+011   3565.39       0.148325E+007   809198.     
  1628.21        89744.5      -0.314723E+011   3559.85       0.147470E+007   802098.     
  1675.64        89744.5      -0.308068E+011   3516.78       0.135718E+007   663783.     
  1723.08        89744.5      -0.305799E+011   3513.39       0.134604E+007   657939.     
  1770.51        89744.5      -0.303527E+011   3509.97       0.133485E+007   652094.     
  1817.95        89744.5      -0.301253E+011   3506.50       0.132358E+007   646247.     
  1865.38        89744.5      -0.298975E+011   3502.99       0.131225E+007   640398.     
  1912.82        89744.5      -0.296695E+011   3499.44       0.130085E+007   634547.     
  1960.26        89744.5      -0.294412E+011   3495.85       0.128938E+007   628696.     
  2007.69        89744.5      -0.292127E+011   3492.22       0.127784E+007   622843.     
  2055.13        89744.5      -0.289838E+011   3488.54       0.126622E+007   616989.     
  2102.56        89744.5      -0.287547E+011   3484.81       0.125453E+007   611133.     
  2150.00        89744.5      -0.285253E+011   3481.03       0.124276E+007   605275.     
  300.000        107693.      -0.379249E+011   3832.69       0.199409E+007  0.112270E+007
  347.436        107693.      -0.377714E+011   3832.58       0.199320E+007  0.112075E+007
  394.872        107693.      -0.375805E+011   3830.01       0.198756E+007  0.111580E+007
  442.308        107693.      -0.373551E+011   3824.97       0.197714E+007  0.110793E+007
  489.744        107693.      -0.370995E+011   3817.70       0.196240E+007  0.109750E+007
  537.179        107693.      -0.368174E+011   3808.41       0.194371E+007  0.108481E+007
  584.615        107693.      -0.365107E+011   3797.17       0.192131E+007  0.107007E+007
  632.051        107693.      -0.361807E+011   3784.03       0.189528E+007  0.105342E+007
  679.487        107693.      -0.358277E+011   3768.95       0.186564E+007  0.103492E+007
  726.923        107693.      -0.354515E+011   3751.84       0.183233E+007  0.101462E+007
  774.359        107693.      -0.350511E+011   3732.57       0.179519E+007   992490.     
  821.795        107693.      -0.346252E+011   3710.97       0.175404E+007   968503.     
  869.231        107693.      -0.342277E+011   3692.00       0.171854E+007   947688.     
  916.667        107693.      -0.339822E+011   3687.19       0.171035E+007   941009.     
  964.103        107693.      -0.337356E+011   3682.34       0.170212E+007   934291.     
  1011.54        107693.      -0.334880E+011   3677.45       0.169385E+007   927537.     
  1058.97        107693.      -0.332396E+011   3672.52       0.168555E+007   920750.     
  1106.41        107693.      -0.329904E+011   3667.56       0.167723E+007   913934.     
  1153.85        107693.      -0.327406E+011   3662.56       0.166888E+007   907089.     
  1201.28        107693.      -0.324903E+011   3657.53       0.166052E+007   900219.     
  1248.72        107693.      -0.322394E+011   3652.46       0.165213E+007   893325.     
  1296.15        107693.      -0.319881E+011   3647.37       0.164372E+007   886407.     
  1343.59        107693.      -0.317364E+011   3642.24       0.163530E+007   879468.     
  1391.03        107693.      -0.314843E+011   3637.08       0.162686E+007   872509.     
  1438.46        107693.      -0.312319E+011   3631.89       0.161841E+007   865529.     
  1485.90        107693.      -0.309792E+011   3626.68       0.160995E+007   858531.     
  1533.33        107693.      -0.307262E+011   3621.43       0.160148E+007   851514.     
  1580.77        107693.      -0.304730E+011   3616.15       0.159300E+007   844478.     
  1628.21        107693.      -0.302195E+011   3610.85       0.158450E+007   837425.     
  1675.64        107693.      -0.299659E+011   3605.51       0.157600E+007   830355.     
  1723.08        107693.      -0.297121E+011   3600.14       0.156749E+007   823267.     
  1770.51        107693.      -0.294580E+011   3594.75       0.155897E+007   816163.     
  1817.95        107693.      -0.292039E+011   3589.33       0.155044E+007   809042.     
  1865.38        107693.      -0.289495E+011   3583.87       0.154191E+007   801905.     
  1912.82        107693.      -0.286951E+011   3578.39       0.153337E+007   794751.     
  1960.26        107693.      -0.283799E+011   3566.65       0.151911E+007   782445.     
  2007.69        107693.      -0.278856E+011   3540.65       0.140104E+007   645148.     
  2055.13        107693.      -0.276602E+011   3537.39       0.139001E+007   639298.     
  2102.56        107693.      -0.274345E+011   3534.09       0.137891E+007   633447.     
  2150.00        107693.      -0.272087E+011   3530.75       0.136776E+007   627597.     
  300.000        125642.      -0.394350E+011   4165.89       0.270456E+007  0.155157E+007
  347.436        125642.      -0.392578E+011   4163.37       0.269785E+007  0.154532E+007
  394.872        125642.      -0.390635E+011   4160.60       0.269048E+007  0.153847E+007
  442.308        125642.      -0.388561E+011   4157.64       0.268261E+007  0.153116E+007
  489.744        125642.      -0.386386E+011   4154.53       0.267434E+007  0.152349E+007
  537.179        125642.      -0.384132E+011   4151.29       0.266575E+007  0.151553E+007
  584.615        125642.      -0.381814E+011   4147.94       0.265689E+007  0.150735E+007
  632.051        125642.      -0.379446E+011   4144.51       0.264781E+007  0.149898E+007
  679.487        125642.      -0.377036E+011   4141.00       0.263854E+007  0.149046E+007
  726.923        125642.      -0.374591E+011   4137.43       0.262912E+007  0.148182E+007
  774.359        125642.      -0.361544E+011   4024.77       0.238276E+007  0.132055E+007
  821.795        125642.      -0.350792E+011   3935.37       0.220369E+007  0.120436E+007
  869.231        125642.      -0.343561E+011   3882.18       0.210182E+007  0.113862E+007
  916.667        125642.      -0.337776E+011   3843.97       0.202999E+007  0.109270E+007
  964.103        125642.      -0.332658E+011   3812.73       0.197181E+007  0.105603E+007
  1011.54        125642.      -0.327853E+011   3784.81       0.192016E+007  0.102405E+007
  1058.97        125642.      -0.323176E+011   3758.30       0.187142E+007   994474.     
  1106.41        125642.      -0.318516E+011   3732.04       0.182353E+007   966044.     
  1153.85        125642.      -0.313802E+011   3705.29       0.177518E+007   937988.     
  1201.28        125642.      -0.311032E+011   3697.62       0.176175E+007   928497.     
  1248.72        125642.      -0.308548E+011   3692.76       0.175346E+007   921683.     
  1296.15        125642.      -0.306059E+011   3687.88       0.174516E+007   914847.     
  1343.59        125642.      -0.303567E+011   3682.97       0.173684E+007   907990.     
  1391.03        125642.      -0.301072E+011   3678.04       0.172850E+007   901114.     
  1438.46        125642.      -0.298573E+011   3673.07       0.172016E+007   894218.     
  1485.90        125642.      -0.296072E+011   3668.08       0.171180E+007   887305.     
  1533.33        125642.      -0.293568E+011   3663.06       0.170343E+007   880373.     
  1580.77        125642.      -0.291062E+011   3658.02       0.169505E+007   873425.     
  1628.21        125642.      -0.288554E+011   3652.94       0.168666E+007   866461.     
  1675.64        125642.      -0.286044E+011   3647.85       0.167827E+007   859480.     
  1723.08        125642.      -0.283533E+011   3642.72       0.166986E+007   852483.     
  1770.51        125642.      -0.281020E+011   3637.57       0.166145E+007   845471.     
  1817.95        125642.      -0.278506E+011   3632.40       0.165303E+007   838443.     
  1865.38        125642.      -0.275990E+011   3627.19       0.164461E+007   831400.     
  1912.82        125642.      -0.273474E+011   3621.97       0.163618E+007   824342.     
  1960.26        125642.      -0.270956E+011   3616.71       0.162774E+007   817269.     
  2007.69        125642.      -0.268438E+011   3611.43       0.161930E+007   810182.     
  2055.13        125642.      -0.265919E+011   3606.12       0.161086E+007   803079.     
  2102.56        125642.      -0.263398E+011   3600.79       0.160240E+007   795962.     
  2150.00        125642.      -0.260877E+011   3595.42       0.159395E+007   788830.     
  300.000        143591.      -0.379046E+011   4193.79       0.277604E+007  0.157541E+007
  347.436        143591.      -0.377290E+011   4191.35       0.276947E+007  0.156922E+007
  394.872        143591.      -0.375363E+011   4188.68       0.276225E+007  0.156243E+007
  442.308        143591.      -0.373305E+011   4185.81       0.275453E+007  0.155519E+007
  489.744        143591.      -0.371145E+011   4182.79       0.274642E+007  0.154758E+007
  537.179        143591.      -0.368906E+011   4179.65       0.273798E+007  0.153968E+007
  584.615        143591.      -0.366603E+011   4176.41       0.272928E+007  0.153156E+007
  632.051        143591.      -0.364249E+011   4173.08       0.272037E+007  0.152326E+007
  679.487        143591.      -0.361853E+011   4169.68       0.271127E+007  0.151480E+007
  726.923        143591.      -0.359423E+011   4166.22       0.270202E+007  0.150621E+007
  774.359        143591.      -0.356964E+011   4162.69       0.269262E+007  0.149752E+007
  821.795        143591.      -0.354481E+011   4159.12       0.268311E+007  0.148873E+007
  869.231        143591.      -0.351978E+011   4155.50       0.267348E+007  0.147987E+007
  916.667        143591.      -0.349457E+011   4151.84       0.266375E+007  0.147093E+007
  964.103        143591.      -0.346921E+011   4148.14       0.265393E+007  0.146194E+007
  1011.54        143591.      -0.344372E+011   4144.40       0.264402E+007  0.145289E+007
  1058.97        143591.      -0.341812E+011   4140.63       0.263403E+007  0.144379E+007
  1106.41        143591.      -0.339241E+011   4136.82       0.262396E+007  0.143465E+007
  1153.85        143591.      -0.336662E+011   4132.98       0.261382E+007  0.142546E+007
  1201.28        143591.      -0.329562E+011   4080.59       0.250136E+007  0.134920E+007
  1248.72        143591.      -0.316194E+011   3960.34       0.226384E+007  0.119399E+007
  1296.15        143591.      -0.307133E+011   3886.05       0.212633E+007  0.110580E+007
  1343.59        143591.      -0.299996E+011   3832.31       0.202989E+007  0.104514E+007
  1391.03        143591.      -0.293838E+011   3789.05       0.195358E+007   998189.     
  1438.46        143591.      -0.288207E+011   3751.42       0.188798E+007   958793.     
  1485.90        143591.      -0.282855E+011   3716.77       0.182818E+007   923793.     
  1533.33        143591.      -0.279474E+011   3702.61       0.180391E+007   908417.     
  1580.77        143591.      -0.276990E+011   3697.77       0.179562E+007   901546.     
  1628.21        143591.      -0.274505E+011   3692.91       0.178733E+007   894659.     
  1675.64        143591.      -0.272018E+011   3688.02       0.177902E+007   887757.     
  1723.08        143591.      -0.269529E+011   3683.11       0.177071E+007   880840.     
  1770.51        143591.      -0.267040E+011   3678.18       0.176240E+007   873908.     
  1817.95        143591.      -0.264549E+011   3673.22       0.175407E+007   866963.     
  1865.38        143591.      -0.262057E+011   3668.23       0.174575E+007   860002.     
  1912.82        143591.      -0.259564E+011   3663.23       0.173741E+007   853028.     
  1960.26        143591.      -0.257071E+011   3658.20       0.172907E+007   846041.     
  2007.69        143591.      -0.254577E+011   3653.15       0.172073E+007   839039.     
  2055.13        143591.      -0.252082E+011   3648.07       0.171238E+007   832024.     
  2102.56        143591.      -0.249587E+011   3642.97       0.170403E+007   824995.     
  2150.00        143591.      -0.247091E+011   3637.84       0.169567E+007   817952.     
  300.000        161539.      -0.363572E+011   4221.14       0.284707E+007  0.159883E+007
  347.436        161539.      -0.361831E+011   4218.78       0.284063E+007  0.159271E+007
  394.872        161539.      -0.359919E+011   4216.18       0.283355E+007  0.158598E+007
  442.308        161539.      -0.357875E+011   4213.40       0.282597E+007  0.157878E+007
  489.744        161539.      -0.355729E+011   4210.47       0.281799E+007  0.157123E+007
  537.179        161539.      -0.353502E+011   4207.43       0.280971E+007  0.156339E+007
  584.615        161539.      -0.351213E+011   4204.28       0.280116E+007  0.155533E+007
  632.051        161539.      -0.348872E+011   4201.05       0.279240E+007  0.154707E+007
  679.487        161539.      -0.346489E+011   4197.75       0.278346E+007  0.153867E+007
  726.923        161539.      -0.344072E+011   4194.39       0.277436E+007  0.153014E+007
  774.359        161539.      -0.341626E+011   4190.97       0.276513E+007  0.152150E+007
  821.795        161539.      -0.339156E+011   4187.51       0.275578E+007  0.151277E+007
  869.231        161539.      -0.336665E+011   4184.00       0.274632E+007  0.150396E+007
  916.667        161539.      -0.334157E+011   4180.44       0.273676E+007  0.149508E+007
  964.103        161539.      -0.331634E+011   4176.85       0.272711E+007  0.148615E+007
  1011.54        161539.      -0.329098E+011   4173.23       0.271738E+007  0.147715E+007
  1058.97        161539.      -0.326551E+011   4169.57       0.270757E+007  0.146812E+007
  1106.41        161539.      -0.323994E+011   4165.88       0.269769E+007  0.145903E+007
  1153.85        161539.      -0.321428E+011   4162.15       0.268774E+007  0.144991E+007
  1201.28        161539.      -0.318854E+011   4158.40       0.267771E+007  0.144075E+007
  1248.72        161539.      -0.316273E+011   4154.61       0.266763E+007  0.143156E+007
  1296.15        161539.      -0.313685E+011   4150.80       0.265748E+007  0.142233E+007
  1343.59        161539.      -0.311092E+011   4146.96       0.264727E+007  0.141308E+007
  1391.03        161539.      -0.308494E+011   4143.09       0.263700E+007  0.140380E+007
  1438.46        161539.      -0.305891E+011   4139.19       0.262667E+007  0.139449E+007
  1485.90        161539.      -0.303284E+011   4135.27       0.261627E+007  0.138516E+007
  1533.33        161539.      -0.300673E+011   4131.32       0.260582E+007  0.137580E+007
  1580.77        161539.      -0.297595E+011   4122.39       0.258390E+007  0.135790E+007
  1628.21        161539.      -0.293601E+011   4103.68       0.253888E+007  0.132299E+007
  1675.64        161539.      -0.276928E+011   3939.36       0.223770E+007  0.112852E+007
  1723.08        161539.      -0.267723E+011   3860.04       0.209962E+007  0.104072E+007
  1770.51        161539.      -0.260275E+011   3800.33       0.199880E+007   978407.     
  1817.95        161539.      -0.253787E+011   3751.32       0.191753E+007   929647.     
  1865.38        161539.      -0.247849E+011   3708.42       0.184733E+007   888802.     
  1912.82        161539.      -0.245273E+011   3702.47       0.183724E+007   880919.     
  1960.26        161539.      -0.242800E+011   3697.64       0.182899E+007   874006.     
  2007.69        161539.      -0.240326E+011   3692.79       0.182073E+007   867080.     
  2055.13        161539.      -0.237852E+011   3687.92       0.181247E+007   860142.     
  2102.56        161539.      -0.235378E+011   3683.02       0.180420E+007   853191.     
  2150.00        161539.      -0.232903E+011   3678.11       0.179593E+007   846228.     
  300.000        179488.      -0.347936E+011   4247.96       0.291766E+007  0.162186E+007
  347.436        179488.      -0.346208E+011   4245.67       0.291134E+007  0.161579E+007
  394.872        179488.      -0.344309E+011   4243.15       0.290438E+007  0.160911E+007
  442.308        179488.      -0.342278E+011   4240.45       0.289694E+007  0.160197E+007
  489.744        179488.      -0.340145E+011   4237.61       0.288910E+007  0.159447E+007
  537.179        179488.      -0.337931E+011   4234.65       0.288095E+007  0.158668E+007
  584.615        179488.      -0.335653E+011   4231.59       0.287255E+007  0.157867E+007
  632.051        179488.      -0.333324E+011   4228.46       0.286393E+007  0.157046E+007
  679.487        179488.      -0.330953E+011   4225.25       0.285514E+007  0.156211E+007
  726.923        179488.      -0.328547E+011   4221.98       0.284619E+007  0.155363E+007
  774.359        179488.      -0.326112E+011   4218.66       0.283711E+007  0.154504E+007
  821.795        179488.      -0.323654E+011   4215.29       0.282791E+007  0.153636E+007
  869.231        179488.      -0.321175E+011   4211.88       0.281861E+007  0.152760E+007
  916.667        179488.      -0.318678E+011   4208.44       0.280921E+007  0.151877E+007
  964.103        179488.      -0.316167E+011   4204.95       0.279972E+007  0.150989E+007
  1011.54        179488.      -0.313643E+011   4201.43       0.279016E+007  0.150095E+007
  1058.97        179488.      -0.311107E+011   4197.88       0.278051E+007  0.149196E+007
  1106.41        179488.      -0.308561E+011   4194.29       0.277080E+007  0.148293E+007
  1153.85        179488.      -0.306007E+011   4190.68       0.276102E+007  0.147387E+007
  1201.28        179488.      -0.303445E+011   4187.04       0.275118E+007  0.146476E+007
  1248.72        179488.      -0.300876E+011   4183.37       0.274127E+007  0.145563E+007
  1296.15        179488.      -0.298301E+011   4179.67       0.273130E+007  0.144646E+007
  1343.59        179488.      -0.295721E+011   4175.94       0.272128E+007  0.143727E+007
  1391.03        179488.      -0.293135E+011   4172.19       0.271119E+007  0.142805E+007
  1438.46        179488.      -0.290545E+011   4168.42       0.270105E+007  0.141880E+007
  1485.90        179488.      -0.287951E+011   4164.62       0.269086E+007  0.140953E+007
  1533.33        179488.      -0.285354E+011   4160.79       0.268061E+007  0.140024E+007
  1580.77        179488.      -0.282752E+011   4156.93       0.267031E+007  0.139092E+007
  1628.21        179488.      -0.280148E+011   4153.05       0.265995E+007  0.138159E+007
  1675.64        179488.      -0.277540E+011   4149.15       0.264953E+007  0.137223E+007
  1723.08        179488.      -0.274930E+011   4145.22       0.263907E+007  0.136285E+007
  1770.51        179488.      -0.272317E+011   4141.26       0.262855E+007  0.135345E+007
  1817.95        179488.      -0.269702E+011   4137.28       0.261797E+007  0.134404E+007
  1865.38        179488.      -0.267085E+011   4133.27       0.260737E+007  0.133460E+007
  1912.82        179488.      -0.263519E+011   4118.76       0.257287E+007  0.130705E+007
  1960.26        179488.      -0.259462E+011   4098.80       0.252533E+007  0.127011E+007
  2007.69        179488.      -0.255561E+011   4080.57       0.248086E+007  0.123609E+007
  2055.13        179488.      -0.251774E+011   4063.59       0.243849E+007  0.120421E+007
  2102.56        179488.      -0.248154E+011   4048.43       0.239988E+007  0.117549E+007
  2150.00        179488.      -0.227353E+011   3821.24       0.205741E+007   966251.     
  300.000        197437.      -0.333327E+011   4288.52       0.299511E+007  0.165266E+007
  347.436        197437.      -0.330430E+011   4272.06       0.298163E+007  0.163848E+007
  394.872        197437.      -0.328543E+011   4269.62       0.297479E+007  0.163186E+007
  442.308        197437.      -0.326524E+011   4266.99       0.296747E+007  0.162477E+007
  489.744        197437.      -0.324402E+011   4264.23       0.295976E+007  0.161731E+007
  537.179        197437.      -0.322199E+011   4261.35       0.295174E+007  0.160957E+007
  584.615        197437.      -0.319932E+011   4258.38       0.294347E+007  0.160160E+007
  632.051        197437.      -0.317614E+011   4255.32       0.293499E+007  0.159344E+007
  679.487        197437.      -0.315253E+011   4252.21       0.292633E+007  0.158513E+007
  726.923        197437.      -0.312857E+011   4249.03       0.291752E+007  0.157670E+007
  774.359        197437.      -0.310433E+011   4245.80       0.290858E+007  0.156815E+007
  821.795        197437.      -0.307985E+011   4242.52       0.289953E+007  0.155952E+007
  869.231        197437.      -0.305516E+011   4239.21       0.289037E+007  0.155081E+007
  916.667        197437.      -0.303030E+011   4235.85       0.288112E+007  0.154203E+007
  964.103        197437.      -0.300528E+011   4232.46       0.287179E+007  0.153319E+007
  1011.54        197437.      -0.298014E+011   4229.04       0.286237E+007  0.152429E+007
  1058.97        197437.      -0.295489E+011   4225.59       0.285289E+007  0.151535E+007
  1106.41        197437.      -0.292954E+011   4222.11       0.284333E+007  0.150637E+007
  1153.85        197437.      -0.290410E+011   4218.60       0.283372E+007  0.149736E+007
  1201.28        197437.      -0.287859E+011   4215.06       0.282403E+007  0.148830E+007
  1248.72        197437.      -0.285301E+011   4211.49       0.281429E+007  0.147922E+007
  1296.15        197437.      -0.282736E+011   4207.90       0.280450E+007  0.147010E+007
  1343.59        197437.      -0.280167E+011   4204.29       0.279464E+007  0.146096E+007
  1391.03        197437.      -0.277593E+011   4200.65       0.278474E+007  0.145180E+007
  1438.46        197437.      -0.275014E+011   4196.98       0.277477E+007  0.144261E+007
  1485.90        197437.      -0.272431E+011   4193.29       0.276476E+007  0.143339E+007
  1533.33        197437.      -0.269845E+011   4189.58       0.275471E+007  0.142416E+007
  1580.77        197437.      -0.267256E+011   4185.84       0.274458E+007  0.141490E+007
  1628.21        197437.      -0.264663E+011   4182.08       0.273441E+007  0.140562E+007
  1675.64        197437.      -0.262068E+011   4178.30       0.272420E+007  0.139633E+007
  1723.08        197437.      -0.259470E+011   4174.49       0.271393E+007  0.138701E+007
  1770.51        197437.      -0.256870E+011   4170.66       0.270361E+007  0.137768E+007
  1817.95        197437.      -0.254268E+011   4166.80       0.269324E+007  0.136833E+007
  1865.38        197437.      -0.251664E+011   4162.92       0.268282E+007  0.135896E+007
  1912.82        197437.      -0.249057E+011   4159.02       0.267235E+007  0.134957E+007
  1960.26        197437.      -0.246449E+011   4155.09       0.266183E+007  0.134017E+007
  2007.69        197437.      -0.243839E+011   4151.14       0.265125E+007  0.133075E+007
  2055.13        197437.      -0.241228E+011   4147.16       0.264062E+007  0.132131E+007
  2102.56        197437.      -0.238614E+011   4143.16       0.262994E+007  0.131185E+007
  2150.00        197437.      -0.236000E+011   4139.13       0.261920E+007  0.130237E+007
  300.000        215385.      -0.322022E+011   4372.52       0.326411E+007  0.166339E+007
  347.436        215385.      -0.320310E+011   4370.43       0.325619E+007  0.165695E+007
  394.872        215385.      -0.318418E+011   4368.12       0.324743E+007  0.164984E+007
  442.308        215385.      -0.316398E+011   4365.78       0.323824E+007  0.164175E+007
  489.744        215385.      -0.314304E+011   4363.81       0.322929E+007  0.163183E+007
  537.179        215385.      -0.312123E+011   4361.70       0.321983E+007  0.162192E+007
  584.615        215385.      -0.304277E+011   4287.42       0.301538E+007  0.162591E+007
  632.051        215385.      -0.301749E+011   4281.69       0.300560E+007  0.161603E+007
  679.487        215385.      -0.299397E+011   4278.65       0.299707E+007  0.160776E+007
  726.923        215385.      -0.297011E+011   4275.56       0.298839E+007  0.159937E+007
  774.359        215385.      -0.294596E+011   4272.41       0.297959E+007  0.159086E+007
  821.795        215385.      -0.292157E+011   4269.23       0.297067E+007  0.158227E+007
  869.231        215385.      -0.289697E+011   4266.00       0.296165E+007  0.157360E+007
  916.667        215385.      -0.287220E+011   4262.73       0.295254E+007  0.156486E+007
  964.103        215385.      -0.284727E+011   4259.43       0.294335E+007  0.155606E+007
  1011.54        215385.      -0.282222E+011   4256.10       0.293408E+007  0.154721E+007
  1058.97        215385.      -0.279706E+011   4252.74       0.292474E+007  0.153832E+007
  1106.41        215385.      -0.277180E+011   4249.36       0.291533E+007  0.152938E+007
  1153.85        215385.      -0.274646E+011   4245.94       0.290586E+007  0.152040E+007
  1201.28        215385.      -0.272104E+011   4242.50       0.289633E+007  0.151140E+007
  1248.72        215385.      -0.269555E+011   4239.03       0.288675E+007  0.150236E+007
  1296.15        215385.      -0.267000E+011   4235.54       0.287711E+007  0.149329E+007
  1343.59        215385.      -0.264441E+011   4232.03       0.286741E+007  0.148420E+007
  1391.03        215385.      -0.261876E+011   4228.49       0.285767E+007  0.147508E+007
  1438.46        215385.      -0.259307E+011   4224.93       0.284787E+007  0.146594E+007
  1485.90        215385.      -0.256735E+011   4221.35       0.283803E+007  0.145677E+007
  1533.33        215385.      -0.254159E+011   4217.74       0.282814E+007  0.144759E+007
  1580.77        215385.      -0.251580E+011   4214.11       0.281819E+007  0.143838E+007
  1628.21        215385.      -0.248998E+011   4210.46       0.280820E+007  0.142916E+007
  1675.64        215385.      -0.246413E+011   4206.79       0.279817E+007  0.141992E+007
  1723.08        215385.      -0.243826E+011   4203.10       0.278808E+007  0.141066E+007
  1770.51        215385.      -0.241237E+011   4199.38       0.277795E+007  0.140139E+007
  1817.95        215385.      -0.238646E+011   4195.64       0.276777E+007  0.139209E+007
  1865.38        215385.      -0.236053E+011   4191.88       0.275754E+007  0.138278E+007
  1912.82        215385.      -0.233458E+011   4188.10       0.274727E+007  0.137346E+007
  1960.26        215385.      -0.230862E+011   4184.29       0.273695E+007  0.136412E+007
  2007.69        215385.      -0.228264E+011   4180.46       0.272658E+007  0.135476E+007
  2055.13        215385.      -0.225665E+011   4176.61       0.271616E+007  0.134538E+007
  2102.56        215385.      -0.223064E+011   4172.73       0.270569E+007  0.133599E+007
  2150.00        215385.      -0.220462E+011   4168.83       0.269517E+007  0.132659E+007
  300.000        233334.      -0.318327E+011   4565.18       0.329458E+007  0.205835E+007
  347.436        233334.      -0.316519E+011   4562.50       0.328815E+007  0.204938E+007
  394.872        233334.      -0.314503E+011   4559.54       0.328101E+007  0.203905E+007
  442.308        233334.      -0.312319E+011   4556.36       0.327330E+007  0.202753E+007
  489.744        233334.      -0.309997E+011   4553.01       0.326512E+007  0.201496E+007
  537.179        233334.      -0.307561E+011   4549.51       0.325655E+007  0.200147E+007
  584.615        233334.      -0.305028E+011   4545.90       0.324765E+007  0.198720E+007
  632.051        233334.      -0.302412E+011   4542.19       0.323847E+007  0.197225E+007
  679.487        233334.      -0.299745E+011   4538.40       0.322909E+007  0.195723E+007
  726.923        233334.      -0.297202E+011   4534.54       0.321996E+007  0.194608E+007
  774.359        233334.      -0.294626E+011   4530.61       0.321069E+007  0.193477E+007
  821.795        233334.      -0.292021E+011   4526.62       0.320128E+007  0.192332E+007
  869.231        233334.      -0.289392E+011   4522.59       0.319176E+007  0.191176E+007
  916.667        233334.      -0.286742E+011   4518.50       0.318213E+007  0.190008E+007
  964.103        233334.      -0.284075E+011   4514.38       0.317240E+007  0.188832E+007
  1011.54        233334.      -0.281392E+011   4510.21       0.316259E+007  0.187647E+007
  1058.97        233334.      -0.278696E+011   4506.01       0.315269E+007  0.186455E+007
  1106.41        233334.      -0.275452E+011   4493.54       0.314498E+007  0.183142E+007
  1153.85        233334.      -0.271556E+011   4470.92       0.313970E+007  0.177315E+007
  1201.28        233334.      -0.261082E+011   4345.78       0.301889E+007  0.162412E+007
  1248.72        233334.      -0.255802E+011   4299.94       0.298078E+007  0.156314E+007
  1296.15        233334.      -0.251645E+011   4271.25       0.295470E+007  0.152537E+007
  1343.59        233334.      -0.248550E+011   4259.21       0.293963E+007  0.150699E+007
  1391.03        233334.      -0.245994E+011   4255.76       0.293004E+007  0.149791E+007
  1438.46        233334.      -0.243434E+011   4252.30       0.292039E+007  0.148882E+007
  1485.90        233334.      -0.240871E+011   4248.82       0.291071E+007  0.147970E+007
  1533.33        233334.      -0.238303E+011   4245.31       0.290097E+007  0.147056E+007
  1580.77        233334.      -0.235733E+011   4241.78       0.289119E+007  0.146140E+007
  1628.21        233334.      -0.233160E+011   4238.24       0.288137E+007  0.145223E+007
  1675.64        233334.      -0.230585E+011   4234.67       0.287150E+007  0.144304E+007
  1723.08        233334.      -0.228008E+011   4231.08       0.286158E+007  0.143383E+007
  1770.51        233334.      -0.225428E+011   4227.47       0.285162E+007  0.142460E+007
  1817.95        233334.      -0.223907E+011   4247.94       0.287217E+007  0.143428E+007
  1865.38        233334.      -0.222386E+011   4269.40       0.289481E+007  0.144487E+007
  1912.82        233334.      -0.220629E+011   4286.33       0.291235E+007  0.145196E+007
  1960.26        233334.      -0.218689E+011   4299.78       0.292591E+007  0.145631E+007
  2007.69        233334.      -0.216606E+011   4310.50       0.293631E+007  0.145848E+007
  2055.13        233334.      -0.214407E+011   4319.03       0.294418E+007  0.145887E+007
  2102.56        233334.      -0.212115E+011   4325.79       0.294995E+007  0.145780E+007
  2150.00        233334.      -0.215292E+011   4456.86       0.308661E+007  0.156886E+007
  300.000        251283.      -0.302163E+011   4590.60       0.336152E+007  0.209034E+007
  347.436        251283.      -0.300369E+011   4587.99       0.335520E+007  0.208145E+007
  394.872        251283.      -0.298367E+011   4585.10       0.334817E+007  0.207121E+007
  442.308        251283.      -0.296196E+011   4581.99       0.334057E+007  0.205976E+007
  489.744        251283.      -0.293887E+011   4578.72       0.333250E+007  0.204727E+007
  537.179        251283.      -0.291462E+011   4575.30       0.332404E+007  0.203386E+007
  584.615        251283.      -0.288940E+011   4571.77       0.331524E+007  0.201966E+007
  632.051        251283.      -0.286335E+011   4568.14       0.330617E+007  0.200478E+007
  679.487        251283.      -0.283679E+011   4564.44       0.329690E+007  0.198983E+007
  726.923        251283.      -0.281148E+011   4560.66       0.328790E+007  0.197874E+007
  774.359        251283.      -0.278583E+011   4556.81       0.327876E+007  0.196749E+007
  821.795        251283.      -0.275989E+011   4552.92       0.326950E+007  0.195611E+007
  869.231        251283.      -0.273371E+011   4548.97       0.326011E+007  0.194460E+007
  916.667        251283.      -0.270733E+011   4544.98       0.325063E+007  0.193299E+007
  964.103        251283.      -0.268076E+011   4540.94       0.324104E+007  0.192128E+007
  1011.54        251283.      -0.265405E+011   4536.87       0.323137E+007  0.190950E+007
  1058.97        251283.      -0.262720E+011   4532.76       0.322162E+007  0.189764E+007
  1106.41        251283.      -0.260023E+011   4528.62       0.321180E+007  0.188571E+007
  1153.85        251283.      -0.257317E+011   4524.44       0.320190E+007  0.187372E+007
  1201.28        251283.      -0.254601E+011   4520.23       0.319193E+007  0.186167E+007
  1248.72        251283.      -0.252066E+011   4521.87       0.319559E+007  0.184589E+007
  1296.15        251283.      -0.249955E+011   4537.37       0.323332E+007  0.182212E+007
  1343.59        251283.      -0.247546E+011   4544.45       0.325253E+007  0.180414E+007
  1391.03        251283.      -0.244980E+011   4547.24       0.326201E+007  0.178892E+007
  1438.46        251283.      -0.242322E+011   4547.58       0.326585E+007  0.177518E+007
  1485.90        251283.      -0.239604E+011   4546.42       0.326616E+007  0.176229E+007
  1533.33        251283.      -0.236847E+011   4544.28       0.326415E+007  0.174991E+007
  1580.77        251283.      -0.234060E+011   4541.45       0.326052E+007  0.173786E+007
  1628.21        251283.      -0.231252E+011   4538.14       0.325575E+007  0.172602E+007
  1675.64        251283.      -0.228427E+011   4534.46       0.325014E+007  0.171432E+007
  1723.08        251283.      -0.225589E+011   4530.51       0.324387E+007  0.170270E+007
  1770.51        251283.      -0.222740E+011   4526.34       0.323710E+007  0.169115E+007
  1817.95        251283.      -0.219883E+011   4522.00       0.322993E+007  0.167963E+007
  1865.38        251283.      -0.217018E+011   4517.51       0.322245E+007  0.166813E+007
  1912.82        251283.      -0.214146E+011   4512.90       0.321469E+007  0.165663E+007
  1960.26        251283.      -0.211269E+011   4508.18       0.320672E+007  0.164514E+007
  2007.69        251283.      -0.208386E+011   4503.37       0.319855E+007  0.163363E+007
  2055.13        251283.      -0.205499E+011   4498.48       0.319022E+007  0.162211E+007
  2102.56        251283.      -0.202608E+011   4493.52       0.318175E+007  0.161057E+007
  2150.00        251283.      -0.199713E+011   4488.49       0.317316E+007  0.159902E+007
  300.000        269231.      -0.285873E+011   4615.64       0.342807E+007  0.212198E+007
  347.436        269231.      -0.284092E+011   4613.08       0.342185E+007  0.211317E+007
  394.872        269231.      -0.282103E+011   4610.26       0.341493E+007  0.210300E+007
  442.308        269231.      -0.279944E+011   4607.23       0.340743E+007  0.209164E+007
  489.744        269231.      -0.277647E+011   4604.02       0.339946E+007  0.207922E+007
  537.179        269231.      -0.275233E+011   4600.68       0.339110E+007  0.206588E+007
  584.615        269231.      -0.272722E+011   4597.23       0.338241E+007  0.205175E+007
  632.051        269231.      -0.270127E+011   4593.68       0.337343E+007  0.203694E+007
  679.487        269231.      -0.267480E+011   4590.05       0.336427E+007  0.202205E+007
  726.923        269231.      -0.264960E+011   4586.35       0.335540E+007  0.201102E+007
  774.359        269231.      -0.262405E+011   4582.59       0.334638E+007  0.199983E+007
  821.795        269231.      -0.259822E+011   4578.77       0.333725E+007  0.198849E+007
  869.231        269231.      -0.257214E+011   4574.91       0.332799E+007  0.197704E+007
  916.667        269231.      -0.254586E+011   4571.00       0.331864E+007  0.196549E+007
  964.103        269231.      -0.251940E+011   4567.05       0.330919E+007  0.195384E+007
  1011.54        269231.      -0.249595E+011   4570.94       0.331735E+007  0.193627E+007
  1058.97        269231.      -0.248092E+011   4596.54       0.337714E+007  0.190365E+007
  1106.41        269231.      -0.245867E+011   4605.05       0.339926E+007  0.188404E+007
  1153.85        269231.      -0.243371E+011   4607.41       0.340732E+007  0.186881E+007
  1201.28        269231.      -0.240745E+011   4606.93       0.340881E+007  0.185548E+007
  1248.72        269231.      -0.238046E+011   4604.95       0.340676E+007  0.184310E+007
  1296.15        269231.      -0.235303E+011   4602.09       0.340264E+007  0.183123E+007
  1343.59        269231.      -0.232530E+011   4598.68       0.339721E+007  0.181966E+007
  1391.03        269231.      -0.229736E+011   4594.89       0.339091E+007  0.180826E+007
  1438.46        269231.      -0.226926E+011   4590.84       0.338400E+007  0.179696E+007
  1485.90        269231.      -0.224103E+011   4586.60       0.337665E+007  0.178573E+007
  1533.33        269231.      -0.221271E+011   4582.21       0.336898E+007  0.177454E+007
  1580.77        269231.      -0.218430E+011   4577.70       0.336105E+007  0.176336E+007
  1628.21        269231.      -0.215583E+011   4573.10       0.335293E+007  0.175219E+007
  1675.64        269231.      -0.212729E+011   4568.41       0.334463E+007  0.174102E+007
  1723.08        269231.      -0.209871E+011   4563.66       0.333621E+007  0.172983E+007
  1770.51        269231.      -0.207007E+011   4558.85       0.332767E+007  0.171863E+007
  1817.95        269231.      -0.204140E+011   4553.98       0.331903E+007  0.170742E+007
  1865.38        269231.      -0.201268E+011   4549.06       0.331031E+007  0.169618E+007
  1912.82        269231.      -0.198394E+011   4544.10       0.330151E+007  0.168492E+007
  1960.26        269231.      -0.195516E+011   4539.10       0.329265E+007  0.167363E+007
  2007.69        269231.      -0.192635E+011   4534.05       0.328371E+007  0.166232E+007
  2055.13        269231.      -0.189751E+011   4528.97       0.327473E+007  0.165097E+007
  2102.56        269231.      -0.186865E+011   4523.85       0.326570E+007  0.163960E+007
  2150.00        269231.      -0.183976E+011   4518.69       0.325661E+007  0.162820E+007
  300.000        287180.      -0.269462E+011   4640.29       0.349426E+007  0.215329E+007
  347.436        287180.      -0.267694E+011   4637.80       0.348813E+007  0.214455E+007
  394.872        287180.      -0.265717E+011   4635.04       0.348131E+007  0.213445E+007
  442.308        287180.      -0.263570E+011   4632.07       0.347391E+007  0.212316E+007
  489.744        287180.      -0.261283E+011   4628.94       0.346604E+007  0.211081E+007
  537.179        287180.      -0.262860E+011   4701.71       0.361789E+007  0.203527E+007
  584.615        287180.      -0.261544E+011   4721.79       0.366504E+007  0.200110E+007
  632.051        287180.      -0.259064E+011   4719.08       0.366104E+007  0.199036E+007
  679.487        287180.      -0.256458E+011   4714.70       0.365325E+007  0.198100E+007
  726.923        287180.      -0.253811E+011   4710.25       0.364533E+007  0.197146E+007
  774.359        287180.      -0.251042E+011   4704.41       0.363420E+007  0.196193E+007
  821.795        287180.      -0.248215E+011   4698.01       0.362165E+007  0.195248E+007
  869.231        287180.      -0.245357E+011   4691.39       0.360845E+007  0.194312E+007
  916.667        287180.      -0.242491E+011   4684.83       0.359531E+007  0.193371E+007
  964.103        287180.      -0.239630E+011   4678.54       0.358275E+007  0.192414E+007
  1011.54        287180.      -0.236776E+011   4672.54       0.357085E+007  0.191439E+007
  1058.97        287180.      -0.233927E+011   4666.77       0.355950E+007  0.190446E+007
  1106.41        287180.      -0.231081E+011   4661.18       0.354859E+007  0.189440E+007
  1153.85        287180.      -0.228235E+011   4655.74       0.353803E+007  0.188421E+007
  1201.28        287180.      -0.225390E+011   4650.40       0.352775E+007  0.187393E+007
  1248.72        287180.      -0.222544E+011   4645.14       0.351767E+007  0.186355E+007
  1296.15        287180.      -0.219696E+011   4639.94       0.350775E+007  0.185309E+007
  1343.59        287180.      -0.216846E+011   4634.79       0.349797E+007  0.184257E+007
  1391.03        287180.      -0.213994E+011   4629.66       0.348829E+007  0.183198E+007
  1438.46        287180.      -0.211140E+011   4624.56       0.347869E+007  0.182134E+007
  1485.90        287180.      -0.208284E+011   4619.48       0.346916E+007  0.181064E+007
  1533.33        287180.      -0.205425E+011   4614.40       0.345968E+007  0.179989E+007
  1580.77        287180.      -0.202565E+011   4609.33       0.345023E+007  0.178910E+007
  1628.21        287180.      -0.199702E+011   4604.26       0.344082E+007  0.177827E+007
  1675.64        287180.      -0.196838E+011   4599.18       0.343144E+007  0.176739E+007
  1723.08        287180.      -0.193971E+011   4594.10       0.342206E+007  0.175647E+007
  1770.51        287180.      -0.191102E+011   4589.01       0.341270E+007  0.174551E+007
  1817.95        287180.      -0.188232E+011   4583.91       0.340335E+007  0.173452E+007
  1865.38        287180.      -0.185360E+011   4578.80       0.339398E+007  0.172349E+007
  1912.82        287180.      -0.182485E+011   4573.67       0.338465E+007  0.171242E+007
  1960.26        287180.      -0.179610E+011   4568.53       0.337529E+007  0.170131E+007
  2007.69        287180.      -0.176732E+011   4563.37       0.336593E+007  0.169017E+007
  2055.13        287180.      -0.173854E+011   4558.19       0.335657E+007  0.167900E+007
  2102.56        287180.      -0.170973E+011   4552.99       0.334719E+007  0.166778E+007
  2150.00        287180.      -0.168091E+011   4547.78       0.333781E+007  0.165654E+007
  300.000        305129.      -0.257048E+011   4741.54       0.371671E+007  0.210758E+007
  347.436        305129.      -0.256322E+011   4761.11       0.376134E+007  0.206992E+007
  394.872        305129.      -0.254498E+011   4762.11       0.376517E+007  0.205687E+007
  442.308        305129.      -0.252310E+011   4758.52       0.375871E+007  0.204911E+007
  489.744        305129.      -0.250001E+011   4754.73       0.375188E+007  0.204090E+007
  537.179        305129.      -0.247596E+011   4750.76       0.374476E+007  0.203234E+007
  584.615        305129.      -0.245114E+011   4746.66       0.373739E+007  0.202349E+007
  632.051        305129.      -0.242572E+011   4742.45       0.372984E+007  0.201440E+007
  679.487        305129.      -0.239979E+011   4738.15       0.372212E+007  0.200512E+007
  726.923        305129.      -0.237345E+011   4733.76       0.371427E+007  0.199567E+007
  774.359        305129.      -0.234676E+011   4729.30       0.370630E+007  0.198608E+007
  821.795        305129.      -0.231980E+011   4724.79       0.369824E+007  0.197637E+007
  869.231        305129.      -0.229258E+011   4720.22       0.369008E+007  0.196655E+007
  916.667        305129.      -0.226516E+011   4715.60       0.368185E+007  0.195664E+007
  964.103        305129.      -0.223726E+011   4710.46       0.367234E+007  0.194675E+007
  1011.54        305129.      -0.220877E+011   4704.61       0.366101E+007  0.193697E+007
  1058.97        305129.      -0.218023E+011   4698.80       0.364974E+007  0.192713E+007
  1106.41        305129.      -0.215164E+011   4693.04       0.363855E+007  0.191724E+007
  1153.85        305129.      -0.212302E+011   4687.35       0.362748E+007  0.190728E+007
  1201.28        305129.      -0.209439E+011   4681.72       0.361654E+007  0.189725E+007
  1248.72        305129.      -0.206575E+011   4676.16       0.360575E+007  0.188714E+007
  1296.15        305129.      -0.203711E+011   4670.65       0.359510E+007  0.187697E+007
  1343.59        305129.      -0.200846E+011   4665.20       0.358458E+007  0.186672E+007
  1391.03        305129.      -0.197981E+011   4659.80       0.357420E+007  0.185640E+007
  1438.46        305129.      -0.195115E+011   4654.45       0.356392E+007  0.184602E+007
  1485.90        305129.      -0.192250E+011   4649.12       0.355375E+007  0.183557E+007
  1533.33        305129.      -0.189383E+011   4643.83       0.354367E+007  0.182507E+007
  1580.77        305129.      -0.186517E+011   4638.57       0.353368E+007  0.181451E+007
  1628.21        305129.      -0.183650E+011   4633.32       0.352375E+007  0.180389E+007
  1675.64        305129.      -0.180782E+011   4628.09       0.351389E+007  0.179322E+007
  1723.08        305129.      -0.177913E+011   4622.88       0.350409E+007  0.178251E+007
  1770.51        305129.      -0.175044E+011   4617.67       0.349432E+007  0.177174E+007
  1817.95        305129.      -0.172175E+011   4612.46       0.348461E+007  0.176093E+007
  1865.38        305129.      -0.169304E+011   4607.26       0.347493E+007  0.175008E+007
  1912.82        305129.      -0.166433E+011   4602.06       0.346528E+007  0.173918E+007
  1960.26        305129.      -0.163561E+011   4596.85       0.345565E+007  0.172824E+007
  2007.69        305129.      -0.160688E+011   4591.64       0.344604E+007  0.171726E+007
  2055.13        305129.      -0.157815E+011   4586.43       0.343645E+007  0.170625E+007
  2102.56        305129.      -0.154941E+011   4581.20       0.342687E+007  0.169519E+007
  2150.00        305129.      -0.152065E+011   4575.97       0.341730E+007  0.168409E+007
  300.000        323077.      -0.241659E+011   4791.06       0.384465E+007  0.209375E+007
  347.436        323077.      -0.239845E+011   4788.12       0.383933E+007  0.208735E+007
  394.872        323077.      -0.237830E+011   4784.86       0.383340E+007  0.208023E+007
  442.308        323077.      -0.235657E+011   4781.33       0.382700E+007  0.207255E+007
  489.744        323077.      -0.233361E+011   4777.59       0.382024E+007  0.206442E+007
  537.179        323077.      -0.230970E+011   4773.69       0.381318E+007  0.205594E+007
  584.615        323077.      -0.228502E+011   4769.65       0.380588E+007  0.204718E+007
  632.051        323077.      -0.225972E+011   4765.50       0.379839E+007  0.203818E+007
  679.487        323077.      -0.223391E+011   4761.26       0.379074E+007  0.202898E+007
  726.923        323077.      -0.220770E+011   4756.94       0.378295E+007  0.201961E+007
  774.359        323077.      -0.218113E+011   4752.55       0.377505E+007  0.201011E+007
  821.795        323077.      -0.215428E+011   4748.10       0.376704E+007  0.200048E+007
  869.231        323077.      -0.212719E+011   4743.60       0.375895E+007  0.199075E+007
  916.667        323077.      -0.209988E+011   4739.05       0.375079E+007  0.198091E+007
  964.103        323077.      -0.207240E+011   4734.46       0.374255E+007  0.197100E+007
  1011.54        323077.      -0.204477E+011   4729.82       0.373426E+007  0.196101E+007
  1058.97        323077.      -0.201700E+011   4725.16       0.372591E+007  0.195094E+007
  1106.41        323077.      -0.198911E+011   4720.45       0.371751E+007  0.194082E+007
  1153.85        323077.      -0.196112E+011   4715.71       0.370903E+007  0.193063E+007
  1201.28        323077.      -0.193249E+011   4710.05       0.369809E+007  0.192073E+007
  1248.72        323077.      -0.190384E+011   4704.45       0.368726E+007  0.191077E+007
  1296.15        323077.      -0.187518E+011   4698.90       0.367651E+007  0.190075E+007
  1343.59        323077.      -0.184652E+011   4693.39       0.366586E+007  0.189067E+007
  1391.03        323077.      -0.181785E+011   4687.92       0.365531E+007  0.188053E+007
  1438.46        323077.      -0.178918E+011   4682.49       0.364484E+007  0.187032E+007
  1485.90        323077.      -0.176051E+011   4677.09       0.363447E+007  0.186006E+007
  1533.33        323077.      -0.173183E+011   4671.73       0.362417E+007  0.184973E+007
  1580.77        323077.      -0.170316E+011   4666.40       0.361395E+007  0.183935E+007
  1628.21        323077.      -0.167449E+011   4661.09       0.360381E+007  0.182892E+007
  1675.64        323077.      -0.164582E+011   4655.80       0.359373E+007  0.181843E+007
  1723.08        323077.      -0.161715E+011   4650.52       0.358371E+007  0.180789E+007
  1770.51        323077.      -0.158848E+011   4645.27       0.357375E+007  0.179730E+007
  1817.95        323077.      -0.155981E+011   4640.02       0.356384E+007  0.178666E+007
  1865.38        323077.      -0.153113E+011   4634.78       0.355397E+007  0.177597E+007
  1912.82        323077.      -0.150246E+011   4629.55       0.354415E+007  0.176524E+007
  1960.26        323077.      -0.147378E+011   4624.32       0.353436E+007  0.175446E+007
  2007.69        323077.      -0.144511E+011   4619.09       0.352460E+007  0.174364E+007
  2055.13        323077.      -0.141643E+011   4613.87       0.351486E+007  0.173278E+007
  2102.56        323077.      -0.138775E+011   4608.64       0.350515E+007  0.172187E+007
  2150.00        323077.      -0.135906E+011   4603.40       0.349547E+007  0.171093E+007
  300.000        341026.      -0.224859E+011   4813.39       0.391252E+007  0.211671E+007
  347.436        341026.      -0.223061E+011   4810.51       0.390726E+007  0.211039E+007
  394.872        341026.      -0.221060E+011   4807.30       0.390140E+007  0.210335E+007
  442.308        341026.      -0.218901E+011   4803.83       0.389507E+007  0.209575E+007
  489.744        341026.      -0.216620E+011   4800.15       0.388836E+007  0.208770E+007
  537.179        341026.      -0.214241E+011   4796.31       0.388137E+007  0.207930E+007
  584.615        341026.      -0.211786E+011   4792.33       0.387413E+007  0.207062E+007
  632.051        341026.      -0.209268E+011   4788.24       0.386670E+007  0.206170E+007
  679.487        341026.      -0.206699E+011   4784.06       0.385911E+007  0.205258E+007
  726.923        341026.      -0.204089E+011   4779.81       0.385138E+007  0.204329E+007
  774.359        341026.      -0.201444E+011   4775.48       0.384354E+007  0.203387E+007
  821.795        341026.      -0.198770E+011   4771.09       0.383560E+007  0.202432E+007
  869.231        341026.      -0.196072E+011   4766.65       0.382757E+007  0.201467E+007
  916.667        341026.      -0.193353E+011   4762.17       0.381947E+007  0.200492E+007
  964.103        341026.      -0.190615E+011   4757.64       0.381130E+007  0.199509E+007
  1011.54        341026.      -0.187863E+011   4753.08       0.380307E+007  0.198518E+007
  1058.97        341026.      -0.185097E+011   4748.47       0.379478E+007  0.197520E+007
  1106.41        341026.      -0.182319E+011   4743.84       0.378645E+007  0.196515E+007
  1153.85        341026.      -0.179531E+011   4739.18       0.377806E+007  0.195505E+007
  1201.28        341026.      -0.176735E+011   4734.48       0.376964E+007  0.194490E+007
  1248.72        341026.      -0.173930E+011   4729.76       0.376118E+007  0.193469E+007
  1296.15        341026.      -0.171118E+011   4725.02       0.375268E+007  0.192443E+007
  1343.59        341026.      -0.168300E+011   4720.25       0.374415E+007  0.191413E+007
  1391.03        341026.      -0.165448E+011   4714.97       0.373415E+007  0.190403E+007
  1438.46        341026.      -0.162581E+011   4709.50       0.372358E+007  0.189400E+007
  1485.90        341026.      -0.159715E+011   4704.07       0.371310E+007  0.188391E+007
  1533.33        341026.      -0.156848E+011   4698.67       0.370269E+007  0.187376E+007
  1580.77        341026.      -0.153982E+011   4693.30       0.369235E+007  0.186356E+007
  1628.21        341026.      -0.151117E+011   4687.96       0.368208E+007  0.185329E+007
  1675.64        341026.      -0.148252E+011   4682.64       0.367188E+007  0.184298E+007
  1723.08        341026.      -0.145387E+011   4677.35       0.366174E+007  0.183261E+007
  1770.51        341026.      -0.142523E+011   4672.07       0.365166E+007  0.182218E+007
  1817.95        341026.      -0.139659E+011   4666.80       0.364163E+007  0.181171E+007
  1865.38        341026.      -0.136796E+011   4661.55       0.363165E+007  0.180119E+007
  1912.82        341026.      -0.133933E+011   4656.31       0.362171E+007  0.179062E+007
  1960.26        341026.      -0.131070E+011   4651.08       0.361181E+007  0.178000E+007
  2007.69        341026.      -0.128207E+011   4645.85       0.360196E+007  0.176934E+007
  2055.13        341026.      -0.125345E+011   4640.63       0.359213E+007  0.175863E+007
  2102.56        341026.      -0.122483E+011   4635.41       0.358233E+007  0.174788E+007
  2150.00        341026.      -0.119621E+011   4630.19       0.357256E+007  0.173708E+007
  300.000        358975.      -0.207962E+011   4835.44       0.398018E+007  0.213944E+007
  347.436        358975.      -0.206179E+011   4832.61       0.397498E+007  0.213320E+007
  394.872        358975.      -0.204192E+011   4829.46       0.396918E+007  0.212624E+007
  442.308        358975.      -0.202047E+011   4826.04       0.396290E+007  0.211871E+007
  489.744        358975.      -0.199779E+011   4822.42       0.395626E+007  0.211074E+007
  537.179        358975.      -0.197413E+011   4818.63       0.394932E+007  0.210242E+007
  584.615        358975.      -0.194969E+011   4814.71       0.394215E+007  0.209381E+007
  632.051        358975.      -0.192463E+011   4810.68       0.393477E+007  0.208497E+007
  679.487        358975.      -0.189906E+011   4806.56       0.392724E+007  0.207593E+007
  726.923        358975.      -0.187307E+011   4802.37       0.391958E+007  0.206672E+007
  774.359        358975.      -0.184673E+011   4798.10       0.391179E+007  0.205738E+007
  821.795        358975.      -0.182010E+011   4793.77       0.390391E+007  0.204791E+007
  869.231        358975.      -0.179322E+011   4789.40       0.389594E+007  0.203833E+007
  916.667        358975.      -0.176613E+011   4784.97       0.388790E+007  0.202866E+007
  964.103        358975.      -0.173886E+011   4780.51       0.387979E+007  0.201891E+007
  1011.54        358975.      -0.171144E+011   4776.01       0.387162E+007  0.200908E+007
  1058.97        358975.      -0.168388E+011   4771.47       0.386339E+007  0.199918E+007
  1106.41        358975.      -0.165621E+011   4766.90       0.385512E+007  0.198922E+007
  1153.85        358975.      -0.162843E+011   4762.30       0.384680E+007  0.197920E+007
  1201.28        358975.      -0.160056E+011   4757.67       0.383844E+007  0.196912E+007
  1248.72        358975.      -0.157262E+011   4753.02       0.383004E+007  0.195900E+007
  1296.15        358975.      -0.154460E+011   4748.34       0.382160E+007  0.194882E+007
  1343.59        358975.      -0.151653E+011   4743.64       0.381313E+007  0.193860E+007
  1391.03        358975.      -0.148840E+011   4738.91       0.380463E+007  0.192834E+007
  1438.46        358975.      -0.146022E+011   4734.16       0.379610E+007  0.191804E+007
  1485.90        358975.      -0.143199E+011   4729.39       0.378754E+007  0.190769E+007
  1533.33        358975.      -0.140373E+011   4724.60       0.377895E+007  0.189731E+007
  1580.77        358975.      -0.137529E+011   4719.54       0.376956E+007  0.188706E+007
  1628.21        358975.      -0.134665E+011   4714.18       0.375919E+007  0.187698E+007
  1675.64        358975.      -0.131802E+011   4708.84       0.374889E+007  0.186684E+007
  1723.08        358975.      -0.128940E+011   4703.53       0.373865E+007  0.185664E+007
  1770.51        358975.      -0.126079E+011   4698.24       0.372848E+007  0.184640E+007
  1817.95        358975.      -0.123219E+011   4692.97       0.371836E+007  0.183609E+007
  1865.38        358975.      -0.120359E+011   4687.72       0.370829E+007  0.182574E+007
  1912.82        358975.      -0.117500E+011   4682.47       0.369827E+007  0.181533E+007
  1960.26        358975.      -0.114642E+011   4677.25       0.368829E+007  0.180488E+007
  2007.69        358975.      -0.111784E+011   4672.03       0.367836E+007  0.179438E+007
  2055.13        358975.      -0.108927E+011   4666.81       0.366847E+007  0.178383E+007
  2102.56        358975.      -0.106070E+011   4661.61       0.365861E+007  0.177323E+007
  2150.00        358975.      -0.103214E+011   4656.40       0.364878E+007  0.176259E+007
  300.000        376924.      -0.190971E+011   4857.22       0.404762E+007  0.216195E+007
  347.436        376924.      -0.189202E+011   4854.44       0.404248E+007  0.215578E+007
  394.872        376924.      -0.187229E+011   4851.33       0.403674E+007  0.214889E+007
  442.308        376924.      -0.185097E+011   4847.97       0.403052E+007  0.214144E+007
  489.744        376924.      -0.182841E+011   4844.40       0.402393E+007  0.213355E+007
  537.179        376924.      -0.180487E+011   4840.67       0.401705E+007  0.212530E+007
  584.615        376924.      -0.178056E+011   4836.81       0.400994E+007  0.211677E+007
  632.051        376924.      -0.175561E+011   4832.84       0.400262E+007  0.210800E+007
  679.487        376924.      -0.173015E+011   4828.77       0.399515E+007  0.209904E+007
  726.923        376924.      -0.170426E+011   4824.63       0.398754E+007  0.208991E+007
  774.359        376924.      -0.167803E+011   4820.42       0.397981E+007  0.208064E+007
  821.795        376924.      -0.165150E+011   4816.16       0.397199E+007  0.207124E+007
  869.231        376924.      -0.162472E+011   4811.84       0.396408E+007  0.206174E+007
  916.667        376924.      -0.159773E+011   4807.48       0.395609E+007  0.205215E+007
  964.103        376924.      -0.157056E+011   4803.07       0.394804E+007  0.204247E+007
  1011.54        376924.      -0.154323E+011   4798.63       0.393992E+007  0.203272E+007
  1058.97        376924.      -0.151577E+011   4794.15       0.393176E+007  0.202290E+007
  1106.41        376924.      -0.148820E+011   4789.65       0.392354E+007  0.201302E+007
  1153.85        376924.      -0.146052E+011   4785.11       0.391528E+007  0.200307E+007
  1201.28        376924.      -0.143275E+011   4780.55       0.390698E+007  0.199308E+007
  1248.72        376924.      -0.140490E+011   4775.95       0.389864E+007  0.198303E+007
  1296.15        376924.      -0.137698E+011   4771.34       0.389027E+007  0.197294E+007
  1343.59        376924.      -0.134900E+011   4766.70       0.388186E+007  0.196280E+007
  1391.03        376924.      -0.132096E+011   4762.04       0.387342E+007  0.195262E+007
  1438.46        376924.      -0.129288E+011   4757.36       0.386495E+007  0.194240E+007
  1485.90        376924.      -0.126475E+011   4752.65       0.385645E+007  0.193214E+007
  1533.33        376924.      -0.123659E+011   4747.93       0.384792E+007  0.192184E+007
  1580.77        376924.      -0.120839E+011   4743.18       0.383937E+007  0.191151E+007
  1628.21        376924.      -0.118016E+011   4738.42       0.383079E+007  0.190114E+007
  1675.64        376924.      -0.115190E+011   4733.64       0.382219E+007  0.189073E+007
  1723.08        376924.      -0.112361E+011   4728.83       0.381356E+007  0.188029E+007
  1770.51        376924.      -0.109523E+011   4723.89       0.380449E+007  0.186993E+007
  1817.95        376924.      -0.106666E+011   4718.61       0.379429E+007  0.185981E+007
  1865.38        376924.      -0.103810E+011   4713.36       0.378415E+007  0.184963E+007
  1912.82        376924.      -0.100955E+011   4708.12       0.377406E+007  0.183940E+007
  1960.26        376924.      -0.981005E+010   4702.89       0.376401E+007  0.182911E+007
  2007.69        376924.      -0.952473E+010   4697.68       0.375401E+007  0.181878E+007
  2055.13        376924.      -0.923950E+010   4692.48       0.374405E+007  0.180839E+007
  2102.56        376924.      -0.895436E+010   4687.29       0.373414E+007  0.179796E+007
  2150.00        376924.      -0.866930E+010   4682.11       0.372425E+007  0.178748E+007
  300.000        394872.      -0.173889E+011   4878.73       0.411486E+007  0.218424E+007
  347.436        394872.      -0.172134E+011   4875.99       0.410977E+007  0.217814E+007
  394.872        394872.      -0.170174E+011   4872.94       0.410409E+007  0.217133E+007
  442.308        394872.      -0.168055E+011   4869.62       0.409793E+007  0.216395E+007
  489.744        394872.      -0.165811E+011   4866.11       0.409140E+007  0.215613E+007
  537.179        394872.      -0.163468E+011   4862.43       0.408457E+007  0.214796E+007
  584.615        394872.      -0.161048E+011   4858.62       0.407751E+007  0.213950E+007
  632.051        394872.      -0.158564E+011   4854.71       0.407025E+007  0.213080E+007
  679.487        394872.      -0.156028E+011   4850.70       0.406283E+007  0.212191E+007
  726.923        394872.      -0.153450E+011   4846.61       0.405528E+007  0.211285E+007
  774.359        394872.      -0.150836E+011   4842.46       0.404761E+007  0.210366E+007
  821.795        394872.      -0.148193E+011   4838.25       0.403983E+007  0.209434E+007
  869.231        394872.      -0.145525E+011   4833.99       0.403198E+007  0.208491E+007
  916.667        394872.      -0.142835E+011   4829.68       0.402405E+007  0.207539E+007
  964.103        394872.      -0.140128E+011   4825.34       0.401605E+007  0.206579E+007
  1011.54        394872.      -0.137404E+011   4820.96       0.400800E+007  0.205611E+007
  1058.97        394872.      -0.134668E+011   4816.54       0.399988E+007  0.204636E+007
  1106.41        394872.      -0.131919E+011   4812.09       0.399173E+007  0.203656E+007
  1153.85        394872.      -0.129160E+011   4807.61       0.398352E+007  0.202669E+007
  1201.28        394872.      -0.126392E+011   4803.11       0.397528E+007  0.201677E+007
  1248.72        394872.      -0.123617E+011   4798.58       0.396700E+007  0.200680E+007
  1296.15        394872.      -0.120834E+011   4794.03       0.395868E+007  0.199679E+007
  1343.59        394872.      -0.118045E+011   4789.45       0.395033E+007  0.198673E+007
  1391.03        394872.      -0.115251E+011   4784.85       0.394195E+007  0.197663E+007
  1438.46        394872.      -0.112451E+011   4780.23       0.393354E+007  0.196649E+007
  1485.90        394872.      -0.109648E+011   4775.59       0.392510E+007  0.195631E+007
  1533.33        394872.      -0.106840E+011   4770.93       0.391664E+007  0.194609E+007
  1580.77        394872.      -0.104030E+011   4766.25       0.390815E+007  0.193584E+007
  1628.21        394872.      -0.101216E+011   4761.55       0.389963E+007  0.192555E+007
  1675.64        394872.      -0.983991E+010   4756.84       0.389109E+007  0.191523E+007
  1723.08        394872.      -0.955801E+010   4752.10       0.388252E+007  0.190488E+007
  1770.51        394872.      -0.927588E+010   4747.35       0.387394E+007  0.189449E+007
  1817.95        394872.      -0.899355E+010   4742.57       0.386533E+007  0.188407E+007
  1865.38        394872.      -0.871105E+010   4737.79       0.385668E+007  0.187362E+007
  1912.82        394872.      -0.842839E+010   4732.98       0.384804E+007  0.186314E+007
  1960.26        394872.      -0.814517E+010   4728.08       0.383909E+007  0.185271E+007
  2007.69        394872.      -0.786024E+010   4722.88       0.382902E+007  0.184255E+007
  2055.13        394872.      -0.757544E+010   4717.69       0.381901E+007  0.183234E+007
  2102.56        394872.      -0.729077E+010   4712.51       0.380904E+007  0.182207E+007
  2150.00        394872.      -0.700620E+010   4707.34       0.379911E+007  0.181176E+007
  300.000        412821.      -0.156717E+011   4899.98       0.418190E+007  0.220632E+007
  347.436        412821.      -0.154975E+011   4897.29       0.417687E+007  0.220029E+007
  394.872        412821.      -0.153028E+011   4894.28       0.417123E+007  0.219355E+007
  442.308        412821.      -0.150922E+011   4891.02       0.416513E+007  0.218624E+007
  489.744        412821.      -0.148689E+011   4887.55       0.415865E+007  0.217850E+007
  537.179        412821.      -0.146358E+011   4883.93       0.415188E+007  0.217039E+007
  584.615        412821.      -0.143948E+011   4880.17       0.414487E+007  0.216200E+007
  632.051        412821.      -0.141475E+011   4876.31       0.413767E+007  0.215338E+007
  679.487        412821.      -0.138949E+011   4872.35       0.413030E+007  0.214456E+007
  726.923        412821.      -0.136380E+011   4868.32       0.412280E+007  0.213557E+007
  774.359        412821.      -0.133776E+011   4864.22       0.411518E+007  0.212644E+007
  821.795        412821.      -0.131143E+011   4860.07       0.410746E+007  0.211720E+007
  869.231        412821.      -0.128484E+011   4855.86       0.409966E+007  0.210784E+007
  916.667        412821.      -0.125803E+011   4851.61       0.409178E+007  0.209839E+007
  964.103        412821.      -0.123104E+011   4847.32       0.408384E+007  0.208886E+007
  1011.54        412821.      -0.120390E+011   4842.99       0.407584E+007  0.207926E+007
  1058.97        412821.      -0.117662E+011   4838.63       0.406778E+007  0.206958E+007
  1106.41        412821.      -0.114922E+011   4834.24       0.405968E+007  0.205985E+007
  1153.85        412821.      -0.112172E+011   4829.82       0.405153E+007  0.205005E+007
  1201.28        412821.      -0.109413E+011   4825.38       0.404334E+007  0.204021E+007
  1248.72        412821.      -0.106646E+011   4820.91       0.403511E+007  0.203032E+007
  1296.15        412821.      -0.103872E+011   4816.41       0.402685E+007  0.202038E+007
  1343.59        412821.      -0.101091E+011   4811.90       0.401856E+007  0.201039E+007
  1391.03        412821.      -0.983056E+010   4807.36       0.401024E+007  0.200037E+007
  1438.46        412821.      -0.955150E+010   4802.80       0.400188E+007  0.199030E+007
  1485.90        412821.      -0.927202E+010   4798.22       0.399350E+007  0.198020E+007
  1533.33        412821.      -0.899215E+010   4793.62       0.398510E+007  0.197006E+007
  1580.77        412821.      -0.871194E+010   4789.01       0.397666E+007  0.195989E+007
  1628.21        412821.      -0.843143E+010   4784.37       0.396821E+007  0.194968E+007
  1675.64        412821.      -0.815065E+010   4779.72       0.395972E+007  0.193944E+007
  1723.08        412821.      -0.786962E+010   4775.04       0.395122E+007  0.192917E+007
  1770.51        412821.      -0.758838E+010   4770.35       0.394270E+007  0.191887E+007
  1817.95        412821.      -0.730695E+010   4765.65       0.393415E+007  0.190853E+007
  1865.38        412821.      -0.702534E+010   4760.92       0.392558E+007  0.189816E+007
  1912.82        412821.      -0.674358E+010   4756.18       0.391699E+007  0.188777E+007
  1960.26        412821.      -0.646169E+010   4751.43       0.390838E+007  0.187734E+007
  2007.69        412821.      -0.617968E+010   4746.65       0.389975E+007  0.186689E+007
  2055.13        412821.      -0.589756E+010   4741.86       0.389109E+007  0.185641E+007
  2102.56        412821.      -0.561534E+010   4737.06       0.388242E+007  0.184589E+007
  2150.00        412821.      -0.533261E+010   4732.16       0.387341E+007  0.183545E+007
  300.000        430770.      -0.139459E+011   4920.98       0.424875E+007  0.222819E+007
  347.436        430770.      -0.137731E+011   4918.34       0.424377E+007  0.222223E+007
  394.872        430770.      -0.135796E+011   4915.37       0.423819E+007  0.221556E+007
  442.308        430770.      -0.133701E+011   4912.16       0.423213E+007  0.220832E+007
  489.744        430770.      -0.131480E+011   4908.74       0.422571E+007  0.220065E+007
  537.179        430770.      -0.129160E+011   4905.17       0.421899E+007  0.219261E+007
  584.615        430770.      -0.126760E+011   4901.46       0.421203E+007  0.218429E+007
  632.051        430770.      -0.124297E+011   4897.65       0.420488E+007  0.217573E+007
  679.487        430770.      -0.121780E+011   4893.74       0.419756E+007  0.216698E+007
  726.923        430770.      -0.119221E+011   4889.76       0.419011E+007  0.215806E+007
  774.359        430770.      -0.116626E+011   4885.72       0.418255E+007  0.214901E+007
  821.795        430770.      -0.114001E+011   4881.61       0.417488E+007  0.213983E+007
  869.231        430770.      -0.111351E+011   4877.46       0.416713E+007  0.213054E+007
  916.667        430770.      -0.108679E+011   4873.26       0.415930E+007  0.212116E+007
  964.103        430770.      -0.105989E+011   4869.03       0.415141E+007  0.211170E+007
  1011.54        430770.      -0.103283E+011   4864.76       0.414346E+007  0.210216E+007
  1058.97        430770.      -0.100563E+011   4860.45       0.413545E+007  0.209256E+007
  1106.41        430770.      -0.978319E+010   4856.11       0.412740E+007  0.208290E+007
  1153.85        430770.      -0.950900E+010   4851.75       0.411931E+007  0.207317E+007
  1201.28        430770.      -0.923391E+010   4847.36       0.411117E+007  0.206340E+007
  1248.72        430770.      -0.895802E+010   4842.95       0.410300E+007  0.205358E+007
  1296.15        430770.      -0.868143E+010   4838.51       0.409479E+007  0.204371E+007
  1343.59        430770.      -0.840422E+010   4834.05       0.408655E+007  0.203380E+007
  1391.03        430770.      -0.812646E+010   4829.57       0.407828E+007  0.202385E+007
  1438.46        430770.      -0.784823E+010   4825.07       0.406998E+007  0.201386E+007
  1485.90        430770.      -0.756956E+010   4820.55       0.406166E+007  0.200383E+007
  1533.33        430770.      -0.729051E+010   4816.01       0.405331E+007  0.199377E+007
  1580.77        430770.      -0.701113E+010   4811.45       0.404493E+007  0.198367E+007
  1628.21        430770.      -0.673144E+010   4806.88       0.403653E+007  0.197354E+007
  1675.64        430770.      -0.645149E+010   4802.29       0.402811E+007  0.196338E+007
  1723.08        430770.      -0.617129E+010   4797.68       0.401966E+007  0.195319E+007
  1770.51        430770.      -0.589089E+010   4793.05       0.401120E+007  0.194296E+007
  1817.95        430770.      -0.561030E+010   4788.40       0.400271E+007  0.193271E+007
  1865.38        430770.      -0.532954E+010   4783.74       0.399420E+007  0.192242E+007
  1912.82        430770.      -0.504863E+010   4779.07       0.398564E+007  0.191211E+007
  1960.26        430770.      -0.476759E+010   4774.38       0.397712E+007  0.190176E+007
  2007.69        430770.      -0.448644E+010   4769.67       0.396855E+007  0.189139E+007
  2055.13        430770.      -0.420518E+010   4764.94       0.395996E+007  0.188099E+007
  2102.56        430770.      -0.392384E+010   4760.20       0.395140E+007  0.187057E+007
  2150.00        430770.      -0.364242E+010   4755.45       0.394273E+007  0.186011E+007
  300.000        448718.      -0.122117E+011   4941.74       0.431541E+007  0.224987E+007
  347.436        448718.      -0.120401E+011   4939.14       0.431048E+007  0.224397E+007
  394.872        448718.      -0.118479E+011   4936.22       0.430495E+007  0.223737E+007
  442.308        448718.      -0.116395E+011   4933.05       0.429895E+007  0.223020E+007
  489.744        448718.      -0.114186E+011   4929.68       0.429257E+007  0.222259E+007
  537.179        448718.      -0.111876E+011   4926.15       0.428591E+007  0.221462E+007
  584.615        448718.      -0.109486E+011   4922.50       0.427900E+007  0.220637E+007
  632.051        448718.      -0.107032E+011   4918.73       0.427189E+007  0.219788E+007
  679.487        448718.      -0.104525E+011   4914.88       0.426463E+007  0.218919E+007
  726.923        448718.      -0.101975E+011   4910.95       0.425723E+007  0.218034E+007
  774.359        448718.      -0.993886E+010   4906.95       0.424971E+007  0.217135E+007
  821.795        448718.      -0.967722E+010   4902.90       0.424209E+007  0.216223E+007
  869.231        448718.      -0.941303E+010   4898.80       0.423439E+007  0.215302E+007
  916.667        448718.      -0.914667E+010   4894.65       0.422661E+007  0.214370E+007
  964.103        448718.      -0.887847E+010   4890.47       0.421877E+007  0.213431E+007
  1011.54        448718.      -0.860867E+010   4886.25       0.421087E+007  0.212484E+007
  1058.97        448718.      -0.833749E+010   4882.00       0.420291E+007  0.211531E+007
  1106.41        448718.      -0.806513E+010   4877.71       0.419491E+007  0.210571E+007
  1153.85        448718.      -0.779172E+010   4873.41       0.418687E+007  0.209606E+007
  1201.28        448718.      -0.751740E+010   4869.07       0.417878E+007  0.208635E+007
  1248.72        448718.      -0.724229E+010   4864.71       0.417066E+007  0.207660E+007
  1296.15        448718.      -0.696648E+010   4860.33       0.416250E+007  0.206680E+007
  1343.59        448718.      -0.669004E+010   4855.92       0.415432E+007  0.205697E+007
  1391.03        448718.      -0.641306E+010   4851.50       0.414610E+007  0.204709E+007
  1438.46        448718.      -0.613560E+010   4847.06       0.413785E+007  0.203717E+007
  1485.90        448718.      -0.585771E+010   4842.59       0.412958E+007  0.202721E+007
  1533.33        448718.      -0.557944E+010   4838.11       0.412129E+007  0.201722E+007
  1580.77        448718.      -0.530083E+010   4833.61       0.411296E+007  0.200720E+007
  1628.21        448718.      -0.502193E+010   4829.09       0.410462E+007  0.199714E+007
  1675.64        448718.      -0.474276E+010   4824.56       0.409625E+007  0.198706E+007
  1723.08        448718.      -0.446335E+010   4820.01       0.408786E+007  0.197694E+007
  1770.51        448718.      -0.418373E+010   4815.44       0.407945E+007  0.196679E+007
  1817.95        448718.      -0.390393E+010   4810.86       0.407102E+007  0.195661E+007
  1865.38        448718.      -0.362397E+010   4806.26       0.406257E+007  0.194640E+007
  1912.82        448718.      -0.334386E+010   4801.64       0.405410E+007  0.193617E+007
  1960.26        448718.      -0.306363E+010   4797.01       0.404561E+007  0.192590E+007
  2007.69        448718.      -0.278328E+010   4792.36       0.403710E+007  0.191561E+007
  2055.13        448718.      -0.250284E+010   4787.70       0.402857E+007  0.190529E+007
  2102.56        448718.      -0.222232E+010   4783.03       0.402002E+007  0.189495E+007
  2150.00        448718.      -0.194172E+010   4778.33       0.401145E+007  0.188457E+007
  300.000        466667.      -0.104694E+011   4962.27       0.438188E+007  0.227135E+007
  347.436        466667.      -0.102990E+011   4959.71       0.437700E+007  0.226552E+007
  394.872        466667.      -0.101079E+011   4956.83       0.437152E+007  0.225897E+007
  442.308        466667.      -0.990070E+010   4953.70       0.436557E+007  0.225187E+007
  489.744        466667.      -0.968078E+010   4950.38       0.435925E+007  0.224432E+007
  537.179        466667.      -0.945080E+010   4946.90       0.435263E+007  0.223642E+007
  584.615        466667.      -0.921279E+010   4943.29       0.434577E+007  0.222823E+007
  632.051        466667.      -0.896830E+010   4939.57       0.433871E+007  0.221981E+007
  679.487        466667.      -0.871850E+010   4935.76       0.433150E+007  0.221119E+007
  726.923        466667.      -0.846434E+010   4931.88       0.432414E+007  0.220240E+007
  774.359        466667.      -0.820655E+010   4927.94       0.431667E+007  0.219347E+007
  821.795        466667.      -0.794573E+010   4923.93       0.430910E+007  0.218443E+007
  869.231        466667.      -0.768234E+010   4919.88       0.430145E+007  0.217527E+007
  916.667        466667.      -0.741677E+010   4915.79       0.429372E+007  0.216603E+007
  964.103        466667.      -0.714934E+010   4911.65       0.428592E+007  0.215670E+007
  1011.54        466667.      -0.688031E+010   4907.48       0.427807E+007  0.214729E+007
  1058.97        466667.      -0.660989E+010   4903.28       0.427016E+007  0.213783E+007
  1106.41        466667.      -0.633828E+010   4899.05       0.426221E+007  0.212830E+007
  1153.85        466667.      -0.606561E+010   4894.79       0.425421E+007  0.211871E+007
  1201.28        466667.      -0.579204E+010   4890.51       0.424618E+007  0.210907E+007
  1248.72        466667.      -0.551766E+010   4886.20       0.423810E+007  0.209939E+007
  1296.15        466667.      -0.524259E+010   4881.87       0.423000E+007  0.208966E+007
  1343.59        466667.      -0.496689E+010   4877.52       0.422186E+007  0.207989E+007
  1391.03        466667.      -0.469064E+010   4873.15       0.421369E+007  0.207008E+007
  1438.46        466667.      -0.441391E+010   4868.76       0.420550E+007  0.206023E+007
  1485.90        466667.      -0.413676E+010   4864.36       0.419728E+007  0.205035E+007
  1533.33        466667.      -0.385922E+010   4859.93       0.418903E+007  0.204043E+007
  1580.77        466667.      -0.358135E+010   4855.48       0.418076E+007  0.203048E+007
  1628.21        466667.      -0.330318E+010   4851.02       0.417247E+007  0.202049E+007
  1675.64        466667.      -0.302475E+010   4846.54       0.416416E+007  0.201048E+007
  1723.08        466667.      -0.274608E+010   4842.05       0.415582E+007  0.200043E+007
  1770.51        466667.      -0.246721E+010   4837.54       0.414746E+007  0.199036E+007
  1817.95        466667.      -0.218816E+010   4833.01       0.413909E+007  0.198025E+007
  1865.38        466667.      -0.190895E+010   4828.47       0.413069E+007  0.197012E+007
  1912.82        466667.      -0.162959E+010   4823.92       0.412228E+007  0.195996E+007
  1960.26        466667.      -0.135012E+010   4819.35       0.411384E+007  0.194977E+007
  2007.69        466667.      -0.107054E+010   4814.76       0.410539E+007  0.193956E+007
  2055.13        466667.      -0.790861E+009   4810.16       0.409692E+007  0.192932E+007
  2102.56        466667.      -0.511107E+009   4805.54       0.408843E+007  0.191905E+007
  2150.00        466667.      -0.231286E+009   4800.91       0.407992E+007  0.190875E+007
  300.000        484616.      -0.871906E+010   4982.57       0.444819E+007  0.229263E+007
  347.436        484616.      -0.854987E+010   4980.04       0.444335E+007  0.228686E+007
  394.872        484616.      -0.835995E+010   4977.21       0.443792E+007  0.228039E+007
  442.308        484616.      -0.815381E+010   4974.13       0.443202E+007  0.227335E+007
  489.744        484616.      -0.793491E+010   4970.85       0.442574E+007  0.226586E+007
  537.179        484616.      -0.770591E+010   4967.41       0.441917E+007  0.225803E+007
  584.615        484616.      -0.746883E+010   4963.85       0.441236E+007  0.224990E+007
  632.051        484616.      -0.722522E+010   4960.17       0.440535E+007  0.224154E+007
  679.487        484616.      -0.697628E+010   4956.41       0.439818E+007  0.223298E+007
  726.923        484616.      -0.672294E+010   4952.58       0.439087E+007  0.222426E+007
  774.359        484616.      -0.646596E+010   4948.68       0.438344E+007  0.221539E+007
  821.795        484616.      -0.620592E+010   4944.72       0.437592E+007  0.220641E+007
  869.231        484616.      -0.594330E+010   4940.72       0.436831E+007  0.219732E+007
  916.667        484616.      -0.567848E+010   4936.67       0.436063E+007  0.218813E+007
  964.103        484616.      -0.541179E+010   4932.59       0.435288E+007  0.217887E+007
  1011.54        484616.      -0.514349E+010   4928.47       0.434507E+007  0.216953E+007
  1058.97        484616.      -0.487379E+010   4924.32       0.433721E+007  0.216013E+007
  1106.41        484616.      -0.460289E+010   4920.13       0.432930E+007  0.215066E+007
  1153.85        484616.      -0.433094E+010   4915.93       0.432135E+007  0.214114E+007
  1201.28        484616.      -0.405807E+010   4911.69       0.431337E+007  0.213157E+007
  1248.72        484616.      -0.378440E+010   4907.44       0.430534E+007  0.212195E+007
  1296.15        484616.      -0.351002E+010   4903.16       0.429728E+007  0.211229E+007
  1343.59        484616.      -0.323501E+010   4898.86       0.428919E+007  0.210258E+007
  1391.03        484616.      -0.295947E+010   4894.54       0.428108E+007  0.209284E+007
  1438.46        484616.      -0.268343E+010   4890.20       0.427293E+007  0.208306E+007
  1485.90        484616.      -0.240697E+010   4885.85       0.426476E+007  0.207324E+007
  1533.33        484616.      -0.213013E+010   4881.48       0.425656E+007  0.206339E+007
  1580.77        484616.      -0.185295E+010   4877.08       0.424834E+007  0.205351E+007
  1628.21        484616.      -0.157548E+010   4872.68       0.424010E+007  0.204359E+007
  1675.64        484616.      -0.129775E+010   4868.25       0.423184E+007  0.203365E+007
  1723.08        484616.      -0.101979E+010   4863.81       0.422355E+007  0.202367E+007
  1770.51        484616.      -0.741619E+009   4859.36       0.421525E+007  0.201367E+007
  1817.95        484616.      -0.463272E+009   4854.89       0.420692E+007  0.200364E+007
  1865.38        484616.      -0.184767E+009   4850.40       0.419858E+007  0.199358E+007
  1912.82        484616.       0.938745E+008   4845.90       0.419022E+007  0.198349E+007
  1960.26        484616.       0.372636E+009   4841.39       0.418184E+007  0.197338E+007
  2007.69        484616.       0.651500E+009   4836.86       0.417344E+007  0.196324E+007
  2055.13        484616.       0.930453E+009   4832.32       0.416502E+007  0.195307E+007
  2102.56        484616.       0.120948E+010   4827.76       0.415659E+007  0.194288E+007
  2150.00        484616.       0.148857E+010   4823.19       0.414814E+007  0.193266E+007
  300.000        502564.      -0.696101E+010   5002.64       0.451431E+007  0.231373E+007
  347.436        502564.      -0.679297E+010   5000.16       0.450953E+007  0.230803E+007
  394.872        502564.      -0.660416E+010   4997.37       0.450414E+007  0.230161E+007
  442.308        502564.      -0.639907E+010   4994.33       0.449829E+007  0.229463E+007
  489.744        502564.      -0.618116E+010   4991.09       0.449206E+007  0.228721E+007
  537.179        502564.      -0.595311E+010   4987.70       0.448553E+007  0.227944E+007
  584.615        502564.      -0.571692E+010   4984.17       0.447876E+007  0.227137E+007
  632.051        502564.      -0.547417E+010   4980.55       0.447180E+007  0.226307E+007
  679.487        502564.      -0.522605E+010   4976.83       0.446467E+007  0.225457E+007
  726.923        502564.      -0.497352E+010   4973.04       0.445741E+007  0.224591E+007
  774.359        502564.      -0.471730E+010   4969.19       0.445003E+007  0.223711E+007
  821.795        502564.      -0.445801E+010   4965.28       0.444255E+007  0.222819E+007
  869.231        502564.      -0.419612E+010   4961.32       0.443498E+007  0.221916E+007
  916.667        502564.      -0.393203E+010   4957.32       0.442735E+007  0.221003E+007
  964.103        502564.      -0.366604E+010   4953.28       0.441964E+007  0.220083E+007
  1011.54        502564.      -0.339844E+010   4949.21       0.441188E+007  0.219155E+007
  1058.97        502564.      -0.312943E+010   4945.10       0.440406E+007  0.218221E+007
  1106.41        502564.      -0.285921E+010   4940.97       0.439620E+007  0.217281E+007
  1153.85        502564.      -0.258793E+010   4936.81       0.438830E+007  0.216335E+007
  1201.28        502564.      -0.231574E+010   4932.63       0.438035E+007  0.215384E+007
  1248.72        502564.      -0.204273E+010   4928.42       0.437237E+007  0.214429E+007
  1296.15        502564.      -0.176901E+010   4924.19       0.436436E+007  0.213469E+007
  1343.59        502564.      -0.149467E+010   4919.94       0.435632E+007  0.212505E+007
  1391.03        502564.      -0.121979E+010   4915.67       0.434825E+007  0.211537E+007
  1438.46        502564.      -0.944411E+009   4911.39       0.434015E+007  0.210565E+007
  1485.90        502564.      -0.668608E+009   4907.08       0.433203E+007  0.209590E+007
  1533.33        502564.      -0.392427E+009   4902.76       0.432388E+007  0.208612E+007
  1580.77        502564.      -0.115911E+009   4898.42       0.431571E+007  0.207630E+007
  1628.21        502564.       0.160900E+009   4894.07       0.430751E+007  0.206645E+007
  1675.64        502564.       0.437972E+009   4889.69       0.429930E+007  0.205658E+007
  1723.08        502564.       0.715273E+009   4885.31       0.429106E+007  0.204667E+007
  1770.51        502564.       0.992777E+009   4880.91       0.428281E+007  0.203674E+007
  1817.95        502564.       0.127046E+010   4876.49       0.427453E+007  0.202677E+007
  1865.38        502564.       0.154829E+010   4872.06       0.426624E+007  0.201678E+007
  1912.82        502564.       0.182626E+010   4867.61       0.425793E+007  0.200677E+007
  1960.26        502564.       0.210435E+010   4863.15       0.424964E+007  0.199673E+007
  2007.69        502564.       0.238254E+010   4858.68       0.424125E+007  0.198666E+007
  2055.13        502564.       0.266081E+010   4854.19       0.423289E+007  0.197656E+007
  2102.56        502564.       0.293915E+010   4849.69       0.422451E+007  0.196645E+007
  2150.00        502564.       0.321756E+010   4845.18       0.421611E+007  0.195630E+007
  300.000        520513.      -0.519541E+010   5022.51       0.458028E+007  0.233465E+007
  347.436        520513.      -0.502850E+010   5020.06       0.457553E+007  0.232900E+007
  394.872        520513.      -0.484077E+010   5017.31       0.457019E+007  0.232265E+007
  442.308        520513.      -0.463669E+010   5014.31       0.456438E+007  0.231573E+007
  489.744        520513.      -0.441975E+010   5011.11       0.455820E+007  0.230837E+007
  537.179        520513.      -0.419261E+010   5007.76       0.455172E+007  0.230065E+007
  584.615        520513.      -0.395729E+010   5004.28       0.454500E+007  0.229265E+007
  632.051        520513.      -0.371536E+010   5000.70       0.453807E+007  0.228441E+007
  679.487        520513.      -0.346804E+010   4997.02       0.453099E+007  0.227597E+007
  726.923        520513.      -0.321627E+010   4993.28       0.452377E+007  0.226737E+007
  774.359        520513.      -0.296080E+010   4989.47       0.451643E+007  0.225863E+007
  821.795        520513.      -0.270223E+010   4985.60       0.450900E+007  0.224976E+007
  869.231        520513.      -0.244104E+010   4981.69       0.450148E+007  0.224079E+007
  916.667        520513.      -0.217763E+010   4977.73       0.449388E+007  0.223173E+007
  964.103        520513.      -0.191233E+010   4973.74       0.448622E+007  0.222259E+007
  1011.54        520513.      -0.164539E+010   4969.71       0.447850E+007  0.221337E+007
  1058.97        520513.      -0.137704E+010   4965.66       0.447073E+007  0.220409E+007
  1106.41        520513.      -0.110747E+010   4961.57       0.446291E+007  0.219475E+007
  1153.85        520513.      -0.836834E+009   4957.46       0.445505E+007  0.218535E+007
  1201.28        520513.      -0.565274E+009   4953.32       0.444715E+007  0.217590E+007
  1248.72        520513.      -0.292902E+009   4949.16       0.443921E+007  0.216641E+007
  1296.15        520513.      -0.198169E+008   4944.98       0.443125E+007  0.215687E+007
  1343.59        520513.       0.253894E+009   4940.78       0.442325E+007  0.214730E+007
  1391.03        520513.       0.528157E+009   4936.56       0.441522E+007  0.213768E+007
  1438.46        520513.       0.802906E+009   4932.32       0.440717E+007  0.212803E+007
  1485.90        520513.       0.107808E+010   4928.06       0.439909E+007  0.211834E+007
  1533.33        520513.       0.135364E+010   4923.79       0.439099E+007  0.210862E+007
  1580.77        520513.       0.162953E+010   4919.50       0.438286E+007  0.209887E+007
  1628.21        520513.       0.190572E+010   4915.20       0.437471E+007  0.208909E+007
  1675.64        520513.       0.218217E+010   4910.88       0.436655E+007  0.207927E+007
  1723.08        520513.       0.245884E+010   4906.54       0.435836E+007  0.206943E+007
  1770.51        520513.       0.273572E+010   4902.19       0.435015E+007  0.205957E+007
  1817.95        520513.       0.301277E+010   4897.83       0.434192E+007  0.204967E+007
  1865.38        520513.       0.328997E+010   4893.45       0.433368E+007  0.203975E+007
  1912.82        520513.       0.356731E+010   4889.05       0.432542E+007  0.202980E+007
  1960.26        520513.       0.384476E+010   4884.65       0.431714E+007  0.201983E+007
  2007.69        520513.       0.412230E+010   4880.23       0.430883E+007  0.200983E+007
  2055.13        520513.       0.439994E+010   4875.79       0.430053E+007  0.199981E+007
  2102.56        520513.       0.467764E+010   4871.35       0.429221E+007  0.198976E+007
  2150.00        520513.       0.495539E+010   4866.89       0.428386E+007  0.197969E+007
  300.000        538462.      -0.342245E+010   5042.16       0.464608E+007  0.235539E+007
  347.436        538462.      -0.325664E+010   5039.75       0.464138E+007  0.234980E+007
  394.872        538462.      -0.306995E+010   5037.03       0.463608E+007  0.234350E+007
  442.308        538462.      -0.286687E+010   5034.07       0.463032E+007  0.233665E+007
  489.744        538462.      -0.265087E+010   5030.92       0.462418E+007  0.232934E+007
  537.179        538462.      -0.242461E+010   5027.61       0.461774E+007  0.232169E+007
  584.615        538462.      -0.219013E+010   5024.17       0.461106E+007  0.231374E+007
  632.051        538462.      -0.194900E+010   5020.63       0.460418E+007  0.230556E+007
  679.487        538462.      -0.170244E+010   5017.00       0.459714E+007  0.229718E+007
  726.923        538462.      -0.145141E+010   5013.29       0.458996E+007  0.228864E+007
  774.359        538462.      -0.119665E+010   5009.53       0.458266E+007  0.227995E+007
  821.795        538462.      -0.938773E+009   5005.70       0.457527E+007  0.227115E+007
  869.231        538462.      -0.678261E+009   5001.84       0.456779E+007  0.226223E+007
  916.667        538462.      -0.415512E+009   4997.92       0.456023E+007  0.225323E+007
  964.103        538462.      -0.150850E+009   4993.98       0.455261E+007  0.224415E+007
  1011.54        538462.       0.115454E+009   4989.99       0.454494E+007  0.223499E+007
  1058.97        538462.       0.383176E+009   4985.98       0.453721E+007  0.222576E+007
  1106.41        538462.       0.652126E+009   4981.94       0.452943E+007  0.221648E+007
  1153.85        538462.       0.922146E+009   4977.87       0.452161E+007  0.220714E+007
  1201.28        538462.       0.119310E+010   4973.78       0.451375E+007  0.219776E+007
  1248.72        538462.       0.146487E+010   4969.66       0.450586E+007  0.218832E+007
  1296.15        538462.       0.173735E+010   4965.53       0.449794E+007  0.217885E+007
  1343.59        538462.       0.201046E+010   4961.38       0.448998E+007  0.216933E+007
  1391.03        538462.       0.228413E+010   4957.20       0.448200E+007  0.215977E+007
  1438.46        538462.       0.255829E+010   4953.01       0.447399E+007  0.215018E+007
  1485.90        538462.       0.283287E+010   4948.80       0.446595E+007  0.214056E+007
  1533.33        538462.       0.310784E+010   4944.58       0.445790E+007  0.213090E+007
  1580.77        538462.       0.338314E+010   4940.34       0.444981E+007  0.212121E+007
  1628.21        538462.       0.365873E+010   4936.08       0.444171E+007  0.211149E+007
  1675.64        538462.       0.393459E+010   4931.81       0.443359E+007  0.210174E+007
  1723.08        538462.       0.421067E+010   4927.52       0.442543E+007  0.209197E+007
  1770.51        538462.       0.448695E+010   4923.22       0.441729E+007  0.208216E+007
  1817.95        538462.       0.476341E+010   4918.91       0.440911E+007  0.207233E+007
  1865.38        538462.       0.504001E+010   4914.58       0.440091E+007  0.206248E+007
  1912.82        538462.       0.531675E+010   4910.24       0.439270E+007  0.205260E+007
  1960.26        538462.       0.559360E+010   4905.88       0.438447E+007  0.204269E+007
  2007.69        538462.       0.587055E+010   4901.51       0.437622E+007  0.203276E+007
  2055.13        538462.       0.614757E+010   4897.13       0.436795E+007  0.202280E+007
  2102.56        538462.       0.642466E+010   4892.73       0.435967E+007  0.201282E+007
  2150.00        538462.       0.670181E+010   4888.33       0.435138E+007  0.200282E+007
  300.000        556410.      -0.164232E+010   5061.61       0.471172E+007  0.237596E+007
  347.436        556410.      -0.147757E+010   5059.24       0.470706E+007  0.237042E+007
  394.872        556410.      -0.129191E+010   5056.56       0.470181E+007  0.236418E+007
  442.308        556410.      -0.108979E+010   5053.64       0.469609E+007  0.235738E+007
  489.744        556410.      -0.874696E+009   5050.52       0.468999E+007  0.235014E+007
  537.179        556410.      -0.649292E+009   5047.25       0.468359E+007  0.234254E+007
  584.615        556410.      -0.415625E+009   5043.85       0.467695E+007  0.233465E+007
  632.051        556410.      -0.175271E+009   5040.35       0.467012E+007  0.232653E+007
  679.487        556410.       0.705476E+008   5036.76       0.466311E+007  0.231821E+007
  726.923        556410.       0.320872E+009   5033.10       0.465598E+007  0.230972E+007
  774.359        556410.       0.574945E+009   5029.37       0.464872E+007  0.230109E+007
  821.795        556410.       0.832158E+009   5025.59       0.464137E+007  0.229234E+007
  869.231        556410.       0.109202E+010   5021.76       0.463393E+007  0.228348E+007
  916.667        556410.       0.135414E+010   5017.89       0.462641E+007  0.227454E+007
  964.103        556410.       0.161818E+010   5013.99       0.461883E+007  0.226551E+007
  1011.54        556410.       0.188388E+010   5010.05       0.461120E+007  0.225641E+007
  1058.97        556410.       0.215100E+010   5006.08       0.460351E+007  0.224724E+007
  1106.41        556410.       0.241936E+010   5002.08       0.459577E+007  0.223802E+007
  1153.85        556410.       0.268879E+010   4998.06       0.458799E+007  0.222874E+007
  1201.28        556410.       0.295917E+010   4994.01       0.458018E+007  0.221941E+007
  1248.72        556410.       0.323036E+010   4989.94       0.457233E+007  0.221003E+007
  1296.15        556410.       0.350228E+010   4985.85       0.456444E+007  0.220061E+007
  1343.59        556410.       0.377482E+010   4981.74       0.455653E+007  0.219116E+007
  1391.03        556410.       0.404792E+010   4977.61       0.454859E+007  0.218166E+007
  1438.46        556410.       0.432152E+010   4973.47       0.454062E+007  0.217213E+007
  1485.90        556410.       0.459554E+010   4969.30       0.453263E+007  0.216256E+007
  1533.33        556410.       0.486994E+010   4965.13       0.452461E+007  0.215297E+007
  1580.77        556410.       0.514468E+010   4960.93       0.451657E+007  0.214334E+007
  1628.21        556410.       0.541972E+010   4956.72       0.450852E+007  0.213368E+007
  1675.64        556410.       0.569501E+010   4952.50       0.450044E+007  0.212399E+007
  1723.08        556410.       0.597053E+010   4948.26       0.449234E+007  0.211428E+007
  1770.51        556410.       0.624625E+010   4944.01       0.448422E+007  0.210454E+007
  1817.95        556410.       0.652214E+010   4939.74       0.447609E+007  0.209477E+007
  1865.38        556410.       0.679819E+010   4935.46       0.446794E+007  0.208498E+007
  1912.82        556410.       0.707436E+010   4931.17       0.445977E+007  0.207516E+007
  1960.26        556410.       0.735064E+010   4926.86       0.445158E+007  0.206532E+007
  2007.69        556410.       0.762702E+010   4922.54       0.444338E+007  0.205545E+007
  2055.13        556410.       0.790347E+010   4918.21       0.443516E+007  0.204556E+007
  2102.56        556410.       0.817999E+010   4913.86       0.442693E+007  0.203565E+007
  2150.00        556410.       0.845656E+010   4909.51       0.441868E+007  0.202571E+007
  300.000        574359.       0.144816E+009   5080.87       0.477720E+007  0.239636E+007
  347.436        574359.       0.308524E+009   5078.53       0.477259E+007  0.239088E+007
  394.872        574359.       0.493190E+009   5075.88       0.476738E+007  0.238469E+007
  442.308        574359.       0.694369E+009   5073.00       0.476170E+007  0.237795E+007
  489.744        574359.       0.908582E+009   5069.92       0.475564E+007  0.237076E+007
  537.179        574359.       0.113315E+010   5066.69       0.474929E+007  0.236322E+007
  584.615        574359.       0.136604E+010   5063.33       0.474269E+007  0.235538E+007
  632.051        574359.       0.160564E+010   5059.86       0.473589E+007  0.234731E+007
  679.487        574359.       0.185075E+010   5056.31       0.472893E+007  0.233905E+007
  726.923        574359.       0.210039E+010   5052.69       0.472183E+007  0.233061E+007
  774.359        574359.       0.235380E+010   5049.01       0.471461E+007  0.232204E+007
  821.795        574359.       0.261038E+010   5045.27       0.470730E+007  0.231335E+007
  869.231        574359.       0.286962E+010   5041.48       0.469990E+007  0.230455E+007
  916.667        574359.       0.313113E+010   5037.65       0.469242E+007  0.229565E+007
  964.103        574359.       0.339458E+010   5033.79       0.468488E+007  0.228668E+007
  1011.54        574359.       0.365969E+010   5029.89       0.467728E+007  0.227764E+007
  1058.97        574359.       0.392624E+010   5025.96       0.466963E+007  0.226853E+007
  1106.41        574359.       0.419404E+010   5022.01       0.466194E+007  0.225936E+007
  1153.85        574359.       0.446291E+010   5018.02       0.465420E+007  0.225013E+007
  1201.28        574359.       0.473274E+010   5014.02       0.464642E+007  0.224086E+007
  1248.72        574359.       0.500338E+010   5009.99       0.463861E+007  0.223154E+007
  1296.15        574359.       0.527475E+010   5005.95       0.463077E+007  0.222218E+007
  1343.59        574359.       0.554676E+010   5001.88       0.462289E+007  0.221278E+007
  1391.03        574359.       0.581932E+010   4997.80       0.461499E+007  0.220334E+007
  1438.46        574359.       0.609238E+010   4993.70       0.460707E+007  0.219387E+007
  1485.90        574359.       0.636587E+010   4989.58       0.459911E+007  0.218436E+007
  1533.33        574359.       0.663974E+010   4985.44       0.459114E+007  0.217482E+007
  1580.77        574359.       0.691395E+010   4981.29       0.458314E+007  0.216525E+007
  1628.21        574359.       0.718845E+010   4977.13       0.457513E+007  0.215565E+007
  1675.64        574359.       0.746322E+010   4972.95       0.456709E+007  0.214603E+007
  1723.08        574359.       0.773821E+010   4968.76       0.455904E+007  0.213637E+007
  1770.51        574359.       0.801339E+010   4964.55       0.455096E+007  0.212669E+007
  1817.95        574359.       0.828876E+010   4960.33       0.454287E+007  0.211699E+007
  1865.38        574359.       0.856426E+010   4956.10       0.453476E+007  0.210726E+007
  1912.82        574359.       0.883990E+010   4951.85       0.452664E+007  0.209750E+007
  1960.26        574359.       0.911565E+010   4947.59       0.451849E+007  0.208772E+007
  2007.69        574359.       0.939149E+010   4943.32       0.451034E+007  0.207792E+007
  2055.13        574359.       0.966740E+010   4939.04       0.450217E+007  0.206809E+007
  2102.56        574359.       0.994338E+010   4934.74       0.449398E+007  0.205825E+007
  2150.00        574359.       0.102194E+011   4930.44       0.448577E+007  0.204837E+007
  300.000        592308.       0.193878E+010   5099.93       0.484254E+007  0.241659E+007
  347.436        592308.       0.210148E+010   5097.63       0.483797E+007  0.241116E+007
  394.872        592308.       0.228518E+010   5095.02       0.483280E+007  0.240503E+007
  442.308        592308.       0.248544E+010   5092.17       0.482716E+007  0.239834E+007
  489.744        592308.       0.269880E+010   5089.12       0.482114E+007  0.239121E+007
  537.179        592308.       0.292256E+010   5085.93       0.481482E+007  0.238372E+007
  584.615        592308.       0.315468E+010   5082.61       0.480827E+007  0.237594E+007
  632.051        592308.       0.339357E+010   5079.18       0.480151E+007  0.236792E+007
  679.487        592308.       0.363798E+010   5075.67       0.479458E+007  0.235971E+007
  726.923        592308.       0.388696E+010   5072.09       0.478752E+007  0.235133E+007
  774.359        592308.       0.413974E+010   5068.44       0.478035E+007  0.234281E+007
  821.795        592308.       0.439570E+010   5064.74       0.477307E+007  0.233417E+007
  869.231        592308.       0.465434E+010   5060.99       0.476571E+007  0.232543E+007
  916.667        592308.       0.491527E+010   5057.21       0.475827E+007  0.231659E+007
  964.103        592308.       0.517816E+010   5053.38       0.475076E+007  0.230767E+007
  1011.54        592308.       0.544271E+010   5049.52       0.474320E+007  0.229868E+007
  1058.97        592308.       0.570871E+010   5045.64       0.473559E+007  0.228962E+007
  1106.41        592308.       0.597597E+010   5041.72       0.472793E+007  0.228051E+007
  1153.85        592308.       0.624431E+010   5037.78       0.472023E+007  0.227134E+007
  1201.28        592308.       0.651361E+010   5033.82       0.471249E+007  0.226212E+007
  1248.72        592308.       0.678373E+010   5029.83       0.470472E+007  0.225286E+007
  1296.15        592308.       0.705459E+010   5025.83       0.469692E+007  0.224355E+007
  1343.59        592308.       0.732608E+010   5021.80       0.468908E+007  0.223420E+007
  1391.03        592308.       0.759814E+010   5017.76       0.468122E+007  0.222482E+007
  1438.46        592308.       0.787068E+010   5013.70       0.467333E+007  0.221541E+007
  1485.90        592308.       0.814367E+010   5009.63       0.466542E+007  0.220596E+007
  1533.33        592308.       0.841703E+010   5005.54       0.465749E+007  0.219647E+007
  1580.77        592308.       0.869074E+010   5001.43       0.464953E+007  0.218696E+007
  1628.21        592308.       0.896474E+010   4997.31       0.464155E+007  0.217742E+007
  1675.64        592308.       0.923900E+010   4993.18       0.463356E+007  0.216785E+007
  1723.08        592308.       0.951348E+010   4989.03       0.462554E+007  0.215826E+007
  1770.51        592308.       0.978817E+010   4984.87       0.461751E+007  0.214864E+007
  1817.95        592308.       0.100630E+011   4980.69       0.460946E+007  0.213899E+007
  1865.38        592308.       0.103380E+011   4976.51       0.460139E+007  0.212932E+007
  1912.82        592308.       0.106132E+011   4972.31       0.459331E+007  0.211963E+007
  1960.26        592308.       0.108884E+011   4968.09       0.458521E+007  0.210991E+007
  2007.69        592308.       0.111637E+011   4963.87       0.457710E+007  0.210017E+007
  2055.13        592308.       0.114391E+011   4959.63       0.456897E+007  0.209040E+007
  2102.56        592308.       0.117146E+011   4955.38       0.456083E+007  0.208061E+007
  2150.00        592308.       0.119901E+011   4951.12       0.455265E+007  0.207081E+007
  300.000        610257.       0.373943E+010   5118.81       0.490773E+007  0.243665E+007
  347.436        610257.       0.390113E+010   5116.54       0.490320E+007  0.243128E+007
  394.872        610257.       0.408389E+010   5113.96       0.489807E+007  0.242520E+007
  442.308        610257.       0.428326E+010   5111.14       0.489247E+007  0.241857E+007
  489.744        610257.       0.449578E+010   5108.14       0.488649E+007  0.241149E+007
  537.179        610257.       0.471876E+010   5104.98       0.488021E+007  0.240405E+007
  584.615        610257.       0.495014E+010   5101.69       0.487369E+007  0.239633E+007
  632.051        610257.       0.518833E+010   5098.31       0.486697E+007  0.238836E+007
  679.487        610257.       0.543208E+010   5094.83       0.486008E+007  0.238020E+007
  726.923        610257.       0.568042E+010   5091.29       0.485306E+007  0.237188E+007
  774.359        610257.       0.593259E+010   5087.68       0.484592E+007  0.236341E+007
  821.795        610257.       0.618795E+010   5084.02       0.483868E+007  0.235482E+007
  869.231        610257.       0.644603E+010   5080.31       0.483135E+007  0.234613E+007
  916.667        610257.       0.670640E+010   5076.56       0.482395E+007  0.233734E+007
  964.103        610257.       0.696873E+010   5072.77       0.481649E+007  0.232848E+007
  1011.54        610257.       0.723276E+010   5068.95       0.480896E+007  0.231954E+007
  1058.97        610257.       0.749824E+010   5065.10       0.480139E+007  0.231053E+007
  1106.41        610257.       0.776498E+010   5061.23       0.479376E+007  0.230147E+007
  1153.85        610257.       0.803281E+010   5057.33       0.478610E+007  0.229236E+007
  1201.28        610257.       0.830161E+010   5053.41       0.477840E+007  0.228319E+007
  1248.72        610257.       0.857123E+010   5049.46       0.477066E+007  0.227398E+007
  1296.15        610257.       0.884160E+010   5045.50       0.476290E+007  0.226473E+007
  1343.59        610257.       0.911260E+010   5041.52       0.475510E+007  0.225544E+007
  1391.03        610257.       0.938417E+010   5037.51       0.474727E+007  0.224611E+007
  1438.46        610257.       0.965623E+010   5033.50       0.473943E+007  0.223675E+007
  1485.90        610257.       0.992874E+010   5029.46       0.473155E+007  0.222735E+007
  1533.33        610257.       0.102016E+011   5025.42       0.472366E+007  0.221793E+007
  1580.77        610257.       0.104749E+011   5021.35       0.471574E+007  0.220847E+007
  1628.21        610257.       0.107484E+011   5017.27       0.470780E+007  0.219899E+007
  1675.64        610257.       0.110222E+011   5013.18       0.469984E+007  0.218948E+007
  1723.08        610257.       0.112962E+011   5009.08       0.469187E+007  0.217994E+007
  1770.51        610257.       0.115704E+011   5004.96       0.468388E+007  0.217038E+007
  1817.95        610257.       0.118448E+011   5000.83       0.467587E+007  0.216079E+007
  1865.38        610257.       0.121193E+011   4996.68       0.466784E+007  0.215117E+007
  1912.82        610257.       0.123939E+011   4992.53       0.465980E+007  0.214154E+007
  1960.26        610257.       0.126687E+011   4988.36       0.465177E+007  0.213188E+007
  2007.69        610257.       0.129436E+011   4984.18       0.464367E+007  0.212220E+007
  2055.13        610257.       0.132185E+011   4979.99       0.463558E+007  0.211249E+007
  2102.56        610257.       0.134935E+011   4975.79       0.462748E+007  0.210276E+007
  2150.00        610257.       0.137685E+011   4971.57       0.461936E+007  0.209302E+007
  300.000        628205.       0.554659E+010   5137.51       0.497278E+007  0.245656E+007
  347.436        628205.       0.570733E+010   5135.26       0.496828E+007  0.245124E+007
  394.872        628205.       0.588916E+010   5132.72       0.496319E+007  0.244521E+007
  442.308        628205.       0.608767E+010   5129.94       0.495763E+007  0.243863E+007
  489.744        628205.       0.629938E+010   5126.96       0.495169E+007  0.243160E+007
  537.179        628205.       0.652160E+010   5123.84       0.494545E+007  0.242422E+007
  584.615        628205.       0.675226E+010   5120.59       0.493897E+007  0.241655E+007
  632.051        628205.       0.698977E+010   5117.24       0.493228E+007  0.240863E+007
  679.487        628205.       0.723288E+010   5113.80       0.492543E+007  0.240053E+007
  726.923        628205.       0.748060E+010   5110.29       0.491845E+007  0.239225E+007
  774.359        628205.       0.773218E+010   5106.72       0.491134E+007  0.238383E+007
  821.795        628205.       0.798698E+010   5103.10       0.490414E+007  0.237530E+007
  869.231        628205.       0.824450E+010   5099.43       0.489685E+007  0.236666E+007
  916.667        628205.       0.850433E+010   5095.71       0.488948E+007  0.235792E+007
  964.103        628205.       0.876615E+010   5091.97       0.488205E+007  0.234911E+007
  1011.54        628205.       0.902966E+010   5088.19       0.487456E+007  0.234022E+007
  1058.97        628205.       0.929464E+010   5084.38       0.486702E+007  0.233127E+007
  1106.41        628205.       0.956088E+010   5080.54       0.485943E+007  0.232226E+007
  1153.85        628205.       0.982824E+010   5076.68       0.485181E+007  0.231319E+007
  1201.28        628205.       0.100965E+011   5072.79       0.484414E+007  0.230408E+007
  1248.72        628205.       0.103657E+011   5068.89       0.483644E+007  0.229492E+007
  1296.15        628205.       0.106356E+011   5064.96       0.482871E+007  0.228572E+007
  1343.59        628205.       0.109061E+011   5061.02       0.482095E+007  0.227648E+007
  1391.03        628205.       0.111772E+011   5057.06       0.481316E+007  0.226721E+007
  1438.46        628205.       0.114488E+011   5053.08       0.480535E+007  0.225790E+007
  1485.90        628205.       0.117209E+011   5049.09       0.479751E+007  0.224856E+007
  1533.33        628205.       0.119933E+011   5045.08       0.478965E+007  0.223919E+007
  1580.77        628205.       0.122661E+011   5041.06       0.478177E+007  0.222979E+007
  1628.21        628205.       0.125392E+011   5037.02       0.477387E+007  0.222036E+007
  1675.64        628205.       0.128125E+011   5032.97       0.476596E+007  0.221090E+007
  1723.08        628205.       0.130861E+011   5028.91       0.475802E+007  0.220142E+007
  1770.51        628205.       0.133598E+011   5024.83       0.475005E+007  0.219191E+007
  1817.95        628205.       0.136337E+011   5020.75       0.474209E+007  0.218238E+007
  1865.38        628205.       0.139078E+011   5016.64       0.473411E+007  0.217282E+007
  1912.82        628205.       0.141820E+011   5012.53       0.472610E+007  0.216324E+007
  1960.26        628205.       0.144563E+011   5008.41       0.471808E+007  0.215364E+007
  2007.69        628205.       0.147307E+011   5004.27       0.471005E+007  0.214402E+007
  2055.13        628205.       0.150052E+011   5000.12       0.470200E+007  0.213437E+007
  2102.56        628205.       0.152797E+011   4995.96       0.469394E+007  0.212470E+007
  2150.00        628205.       0.155543E+011   4991.79       0.468587E+007  0.211501E+007
  300.000        646154.       0.736013E+010   5156.03       0.503769E+007  0.247631E+007
  347.436        646154.       0.751993E+010   5153.81       0.503323E+007  0.247104E+007
  394.872        646154.       0.770086E+010   5151.30       0.502818E+007  0.246506E+007
  442.308        646154.       0.789853E+010   5148.55       0.502265E+007  0.245853E+007
  489.744        646154.       0.810944E+010   5145.61       0.501675E+007  0.245156E+007
  537.179        646154.       0.833092E+010   5142.52       0.501055E+007  0.244422E+007
  584.615        646154.       0.856089E+010   5139.31       0.500410E+007  0.243660E+007
  632.051        646154.       0.879774E+010   5135.99       0.499745E+007  0.242874E+007
  679.487        646154.       0.904022E+010   5132.59       0.499064E+007  0.242068E+007
  726.923        646154.       0.928735E+010   5129.12       0.498368E+007  0.241246E+007
  774.359        646154.       0.953836E+010   5125.58       0.497661E+007  0.240409E+007
  821.795        646154.       0.979261E+010   5121.99       0.496944E+007  0.239560E+007
  869.231        646154.       0.100496E+011   5118.36       0.496219E+007  0.238701E+007
  916.667        646154.       0.103089E+011   5114.68       0.495486E+007  0.237833E+007
  964.103        646154.       0.105702E+011   5110.97       0.494746E+007  0.236956E+007
  1011.54        646154.       0.108333E+011   5107.23       0.494001E+007  0.236073E+007
  1058.97        646154.       0.110978E+011   5103.45       0.493250E+007  0.235182E+007
  1106.41        646154.       0.113635E+011   5099.65       0.492495E+007  0.234286E+007
  1153.85        646154.       0.116304E+011   5095.83       0.491736E+007  0.233385E+007
  1201.28        646154.       0.118983E+011   5091.98       0.490972E+007  0.232479E+007
  1248.72        646154.       0.121670E+011   5088.12       0.490206E+007  0.231568E+007
  1296.15        646154.       0.124364E+011   5084.23       0.489436E+007  0.230653E+007
  1343.59        646154.       0.127065E+011   5080.33       0.488664E+007  0.229735E+007
  1391.03        646154.       0.129772E+011   5076.40       0.487889E+007  0.228812E+007
  1438.46        646154.       0.132484E+011   5072.47       0.487111E+007  0.227887E+007
  1485.90        646154.       0.135200E+011   5068.51       0.486331E+007  0.226958E+007
  1533.33        646154.       0.137920E+011   5064.54       0.485548E+007  0.226026E+007
  1580.77        646154.       0.140643E+011   5060.56       0.484763E+007  0.225091E+007
  1628.21        646154.       0.143370E+011   5056.57       0.483978E+007  0.224153E+007
  1675.64        646154.       0.146099E+011   5052.56       0.483190E+007  0.223213E+007
  1723.08        646154.       0.148830E+011   5048.53       0.482400E+007  0.222270E+007
  1770.51        646154.       0.151563E+011   5044.50       0.481608E+007  0.221325E+007
  1817.95        646154.       0.154298E+011   5040.45       0.480814E+007  0.220377E+007
  1865.38        646154.       0.157035E+011   5036.39       0.480020E+007  0.219427E+007
  1912.82        646154.       0.159772E+011   5032.32       0.479222E+007  0.218475E+007
  1960.26        646154.       0.162511E+011   5028.24       0.478425E+007  0.217520E+007
  2007.69        646154.       0.165251E+011   5024.14       0.477626E+007  0.216563E+007
  2055.13        646154.       0.167991E+011   5020.04       0.476825E+007  0.215604E+007
  2102.56        646154.       0.170732E+011   5015.92       0.476023E+007  0.214643E+007
  2150.00        646154.       0.173474E+011   5011.79       0.475219E+007  0.213680E+007
  300.000        664103.       0.917991E+010   5174.37       0.510246E+007  0.249591E+007
  347.436        664103.       0.933878E+010   5172.19       0.509804E+007  0.249068E+007
  394.872        664103.       0.951884E+010   5169.70       0.509302E+007  0.248476E+007
  442.308        664103.       0.971567E+010   5166.99       0.508753E+007  0.247828E+007
  489.744        664103.       0.992582E+010   5164.08       0.508167E+007  0.247135E+007
  537.179        664103.       0.101466E+011   5161.03       0.507550E+007  0.246407E+007
  584.615        664103.       0.103759E+011   5157.85       0.506909E+007  0.245650E+007
  632.051        664103.       0.106121E+011   5154.56       0.506247E+007  0.244869E+007
  679.487        664103.       0.108540E+011   5151.20       0.505570E+007  0.244068E+007
  726.923        664103.       0.111005E+011   5147.76       0.504878E+007  0.243250E+007
  774.359        664103.       0.113510E+011   5144.26       0.504174E+007  0.242418E+007
  821.795        664103.       0.116047E+011   5140.70       0.503460E+007  0.241574E+007
  869.231        664103.       0.118612E+011   5137.10       0.502738E+007  0.240720E+007
  916.667        664103.       0.121200E+011   5133.46       0.502008E+007  0.239857E+007
  964.103        664103.       0.123808E+011   5129.79       0.501272E+007  0.238985E+007
  1011.54        664103.       0.126434E+011   5126.08       0.500530E+007  0.238106E+007
  1058.97        664103.       0.129074E+011   5122.34       0.499783E+007  0.237221E+007
  1106.41        664103.       0.131728E+011   5118.58       0.499031E+007  0.236330E+007
  1153.85        664103.       0.134392E+011   5114.79       0.498275E+007  0.235433E+007
  1201.28        664103.       0.137066E+011   5110.98       0.497515E+007  0.234532E+007
  1248.72        664103.       0.139749E+011   5107.15       0.496752E+007  0.233626E+007
  1296.15        664103.       0.142439E+011   5103.30       0.495986E+007  0.232717E+007
  1343.59        664103.       0.145136E+011   5099.44       0.495217E+007  0.231803E+007
  1391.03        664103.       0.147838E+011   5095.55       0.494445E+007  0.230886E+007
  1438.46        664103.       0.150546E+011   5091.65       0.493671E+007  0.229965E+007
  1485.90        664103.       0.153258E+011   5087.74       0.492894E+007  0.229041E+007
  1533.33        664103.       0.155974E+011   5083.81       0.492115E+007  0.228115E+007
  1580.77        664103.       0.158693E+011   5079.86       0.491334E+007  0.227185E+007
  1628.21        664103.       0.161415E+011   5075.91       0.490552E+007  0.226252E+007
  1675.64        664103.       0.164140E+011   5071.94       0.489767E+007  0.225317E+007
  1723.08        664103.       0.166868E+011   5067.95       0.488981E+007  0.224380E+007
  1770.51        664103.       0.169597E+011   5063.96       0.488192E+007  0.223440E+007
  1817.95        664103.       0.172328E+011   5059.95       0.487403E+007  0.222497E+007
  1865.38        664103.       0.175060E+011   5055.93       0.486611E+007  0.221552E+007
  1912.82        664103.       0.177794E+011   5051.90       0.485819E+007  0.220605E+007
  1960.26        664103.       0.180529E+011   5047.86       0.485024E+007  0.219656E+007
  2007.69        664103.       0.183265E+011   5043.80       0.484229E+007  0.218705E+007
  2055.13        664103.       0.186001E+011   5039.74       0.483431E+007  0.217751E+007
  2102.56        664103.       0.188738E+011   5035.66       0.482633E+007  0.216796E+007
  2150.00        664103.       0.191475E+011   5031.58       0.481833E+007  0.215838E+007
  300.000        682051.       0.110058E+011   5192.55       0.516710E+007  0.251535E+007
  347.436        682051.       0.111638E+011   5190.39       0.516271E+007  0.251018E+007
  394.872        682051.       0.113429E+011   5187.94       0.515773E+007  0.250430E+007
  442.308        682051.       0.115390E+011   5185.26       0.515228E+007  0.249787E+007
  489.744        682051.       0.117484E+011   5182.38       0.514645E+007  0.249099E+007
  537.179        682051.       0.119684E+011   5179.36       0.514032E+007  0.248376E+007
  584.615        682051.       0.121971E+011   5176.21       0.513394E+007  0.247624E+007
  632.051        682051.       0.124327E+011   5172.96       0.512736E+007  0.246847E+007
  679.487        682051.       0.126740E+011   5169.63       0.512061E+007  0.246051E+007
  726.923        682051.       0.129200E+011   5166.22       0.511373E+007  0.245238E+007
  774.359        682051.       0.131699E+011   5162.75       0.510673E+007  0.244411E+007
  821.795        682051.       0.134231E+011   5159.24       0.509962E+007  0.243572E+007
  869.231        682051.       0.136791E+011   5155.67       0.509243E+007  0.242723E+007
  916.667        682051.       0.139374E+011   5152.07       0.508517E+007  0.241864E+007
  964.103        682051.       0.141978E+011   5148.42       0.507784E+007  0.240997E+007
  1011.54        682051.       0.144599E+011   5144.75       0.507045E+007  0.240123E+007
  1058.97        682051.       0.147235E+011   5141.05       0.506301E+007  0.239243E+007
  1106.41        682051.       0.149884E+011   5137.32       0.505552E+007  0.238356E+007
  1153.85        682051.       0.152544E+011   5133.57       0.504800E+007  0.237465E+007
  1201.28        682051.       0.155214E+011   5129.80       0.504043E+007  0.236568E+007
  1248.72        682051.       0.157893E+011   5126.00       0.503283E+007  0.235668E+007
  1296.15        682051.       0.160579E+011   5122.19       0.502520E+007  0.234763E+007
  1343.59        682051.       0.163272E+011   5118.36       0.501755E+007  0.233854E+007
  1391.03        682051.       0.165970E+011   5114.51       0.500986E+007  0.232942E+007
  1438.46        682051.       0.168674E+011   5110.65       0.500215E+007  0.232026E+007
  1485.90        682051.       0.171382E+011   5106.77       0.499442E+007  0.231107E+007
  1533.33        682051.       0.174094E+011   5102.88       0.498666E+007  0.230185E+007
  1580.77        682051.       0.176809E+011   5098.97       0.497889E+007  0.229261E+007
  1628.21        682051.       0.179528E+011   5095.05       0.497110E+007  0.228333E+007
  1675.64        682051.       0.182249E+011   5091.12       0.496328E+007  0.227403E+007
  1723.08        682051.       0.184972E+011   5087.17       0.495545E+007  0.226471E+007
  1770.51        682051.       0.187698E+011   5083.22       0.494761E+007  0.225536E+007
  1817.95        682051.       0.190425E+011   5079.25       0.493974E+007  0.224598E+007
  1865.38        682051.       0.193154E+011   5075.27       0.493186E+007  0.223659E+007
  1912.82        682051.       0.195884E+011   5071.27       0.492397E+007  0.222717E+007
  1960.26        682051.       0.198615E+011   5067.27       0.491607E+007  0.221773E+007
  2007.69        682051.       0.201346E+011   5063.26       0.490815E+007  0.220827E+007
  2055.13        682051.       0.204079E+011   5059.23       0.490021E+007  0.219879E+007
  2102.56        682051.       0.206812E+011   5055.20       0.489226E+007  0.218929E+007
  2150.00        682051.       0.209546E+011   5051.15       0.488430E+007  0.217977E+007
  300.000        700000.       0.128376E+011   5210.56       0.523161E+007  0.253465E+007
  347.436        700000.       0.129947E+011   5208.43       0.522726E+007  0.252952E+007
  394.872        700000.       0.131731E+011   5206.01       0.522231E+007  0.252369E+007
  442.308        700000.       0.133683E+011   5203.36       0.521689E+007  0.251731E+007
  489.744        700000.       0.135770E+011   5200.51       0.521110E+007  0.251048E+007
  537.179        700000.       0.137964E+011   5197.52       0.520500E+007  0.250330E+007
  584.615        700000.       0.140243E+011   5194.41       0.519866E+007  0.249582E+007
  632.051        700000.       0.142593E+011   5191.19       0.519211E+007  0.248810E+007
  679.487        700000.       0.145001E+011   5187.89       0.518540E+007  0.248019E+007
  726.923        700000.       0.147455E+011   5184.51       0.517854E+007  0.247211E+007
  774.359        700000.       0.149949E+011   5181.08       0.517157E+007  0.246389E+007
  821.795        700000.       0.152477E+011   5177.60       0.516450E+007  0.245554E+007
  869.231        700000.       0.155032E+011   5174.06       0.515734E+007  0.244709E+007
  916.667        700000.       0.157611E+011   5170.49       0.515011E+007  0.243855E+007
  964.103        700000.       0.160210E+011   5166.88       0.514281E+007  0.242993E+007
  1011.54        700000.       0.162827E+011   5163.25       0.513545E+007  0.242124E+007
  1058.97        700000.       0.165458E+011   5159.58       0.512805E+007  0.241248E+007
  1106.41        700000.       0.168103E+011   5155.89       0.512059E+007  0.240366E+007
  1153.85        700000.       0.170759E+011   5152.17       0.511310E+007  0.239479E+007
  1201.28        700000.       0.173425E+011   5148.43       0.510556E+007  0.238588E+007
  1248.72        700000.       0.176100E+011   5144.67       0.509800E+007  0.237692E+007
  1296.15        700000.       0.178782E+011   5140.89       0.509040E+007  0.236791E+007
  1343.59        700000.       0.181471E+011   5137.10       0.508277E+007  0.235888E+007
  1391.03        700000.       0.184166E+011   5133.29       0.507512E+007  0.234980E+007
  1438.46        700000.       0.186866E+011   5129.46       0.506744E+007  0.234069E+007
  1485.90        700000.       0.189570E+011   5125.62       0.505974E+007  0.233155E+007
  1533.33        700000.       0.192279E+011   5121.76       0.505202E+007  0.232238E+007
  1580.77        700000.       0.194990E+011   5117.89       0.504428E+007  0.231318E+007
  1628.21        700000.       0.197705E+011   5114.01       0.503652E+007  0.230396E+007
  1675.64        700000.       0.200423E+011   5110.11       0.502874E+007  0.229471E+007
  1723.08        700000.       0.203142E+011   5106.20       0.502094E+007  0.228543E+007
  1770.51        700000.       0.205864E+011   5102.28       0.501313E+007  0.227613E+007
  1817.95        700000.       0.208588E+011   5098.35       0.500530E+007  0.226681E+007
  1865.38        700000.       0.211313E+011   5094.41       0.499746E+007  0.225747E+007
  1912.82        700000.       0.214039E+011   5090.45       0.498960E+007  0.224810E+007
  1960.26        700000.       0.216767E+011   5086.49       0.498173E+007  0.223871E+007
  2007.69        700000.       0.219495E+011   5082.51       0.497384E+007  0.222930E+007
  2055.13        700000.       0.222224E+011   5078.53       0.496594E+007  0.221987E+007
  2102.56        700000.       0.224953E+011   5074.53       0.495803E+007  0.221042E+007
  2150.00        700000.       0.227683E+011   5070.53       0.495005E+007  0.220096E+007
