|6.6.6
primRef_quadrant3_1.tab                                                                             
           2
T(K)    
   300.00000000000000     
   31.623076923076923     
          40
P(bar)  
   466667.00000000000     
   11965.820512820514     
          40
           6
T(K)           P(bar)         mode           rho,kg/m3      Ks,bar         Gs,bar        
  300.000        466667.      -0.104694E+011   4962.27       0.438188E+007  0.227135E+007
  331.623        466667.      -0.103583E+011   4960.60       0.437870E+007  0.226755E+007
  363.246        466667.      -0.102374E+011   4958.78       0.437524E+007  0.226341E+007
  394.869        466667.      -0.101079E+011   4956.83       0.437152E+007  0.225897E+007
  426.492        466667.      -0.997136E+010   4954.77       0.436760E+007  0.225429E+007
  458.115        466667.      -0.982868E+010   4952.62       0.436350E+007  0.224940E+007
  489.738        466667.      -0.968080E+010   4950.38       0.435925E+007  0.224432E+007
  521.362        466667.      -0.952847E+010   4948.08       0.435487E+007  0.223909E+007
  552.985        466667.      -0.937231E+010   4945.71       0.435037E+007  0.223372E+007
  584.608        466667.      -0.921283E+010   4943.29       0.434577E+007  0.222824E+007
  616.231        466667.      -0.905048E+010   4940.82       0.434109E+007  0.222264E+007
  647.854        466667.      -0.888562E+010   4938.31       0.433633E+007  0.221696E+007
  679.477        466667.      -0.871855E+010   4935.77       0.433150E+007  0.221119E+007
  711.100        466667.      -0.854956E+010   4933.18       0.432661E+007  0.220535E+007
  742.723        466667.      -0.837885E+010   4930.57       0.432166E+007  0.219944E+007
  774.346        466667.      -0.820662E+010   4927.94       0.431667E+007  0.219348E+007
  805.969        466667.      -0.803305E+010   4925.27       0.431164E+007  0.218746E+007
  837.592        466667.      -0.785828E+010   4922.59       0.430656E+007  0.218139E+007
  869.215        466667.      -0.768243E+010   4919.88       0.430145E+007  0.217528E+007
  900.838        466667.      -0.750561E+010   4917.16       0.429630E+007  0.216912E+007
  932.462        466667.      -0.732792E+010   4914.41       0.429113E+007  0.216293E+007
  964.085        466667.      -0.714944E+010   4911.65       0.428593E+007  0.215670E+007
  995.708        466667.      -0.697026E+010   4908.88       0.428070E+007  0.215044E+007
  1027.33        466667.      -0.679042E+010   4906.09       0.427544E+007  0.214415E+007
  1058.95        466667.      -0.661001E+010   4903.28       0.427017E+007  0.213783E+007
  1090.58        466667.      -0.642906E+010   4900.47       0.426487E+007  0.213148E+007
  1122.20        466667.      -0.624763E+010   4897.64       0.425955E+007  0.212511E+007
  1153.82        466667.      -0.606575E+010   4894.80       0.425422E+007  0.211871E+007
  1185.45        466667.      -0.588346E+010   4891.94       0.424886E+007  0.211230E+007
  1217.07        466667.      -0.570081E+010   4889.08       0.424349E+007  0.210586E+007
  1248.69        466667.      -0.551781E+010   4886.21       0.423811E+007  0.209939E+007
  1280.32        466667.      -0.533451E+010   4883.32       0.423271E+007  0.209291E+007
  1311.94        466667.      -0.515091E+010   4880.43       0.422729E+007  0.208641E+007
  1343.56        466667.      -0.496705E+010   4877.53       0.422187E+007  0.207990E+007
  1375.18        466667.      -0.478295E+010   4874.62       0.421643E+007  0.207336E+007
  1406.81        466667.      -0.459862E+010   4871.70       0.421097E+007  0.206681E+007
  1438.43        466667.      -0.441409E+010   4868.77       0.420551E+007  0.206024E+007
  1470.05        466667.      -0.422937E+010   4865.83       0.420003E+007  0.205365E+007
  1501.68        466667.      -0.404447E+010   4862.88       0.419454E+007  0.204705E+007
  1533.30        466667.      -0.385942E+010   4859.93       0.418904E+007  0.204043E+007
  300.000        478633.      -0.930337E+010   4975.82       0.442610E+007  0.228556E+007
  331.623        478633.      -0.919287E+010   4974.17       0.442294E+007  0.228179E+007
  363.246        478633.      -0.907241E+010   4972.37       0.441950E+007  0.227767E+007
  394.869        478633.      -0.894350E+010   4970.44       0.441581E+007  0.227327E+007
  426.492        478633.      -0.880740E+010   4968.40       0.441191E+007  0.226862E+007
  458.115        478633.      -0.866519E+010   4966.27       0.440783E+007  0.226375E+007
  489.738        478633.      -0.851777E+010   4964.05       0.440360E+007  0.225871E+007
  521.362        478633.      -0.836588E+010   4961.77       0.439924E+007  0.225350E+007
  552.985        478633.      -0.821014E+010   4959.42       0.439476E+007  0.224816E+007
  584.608        478633.      -0.805108E+010   4957.02       0.439018E+007  0.224270E+007
  616.231        478633.      -0.788913E+010   4954.57       0.438552E+007  0.223714E+007
  647.854        478633.      -0.772465E+010   4952.08       0.438078E+007  0.223148E+007
  679.477        478633.      -0.755797E+010   4949.56       0.437597E+007  0.222574E+007
  711.100        478633.      -0.738934E+010   4947.00       0.437110E+007  0.221993E+007
  742.723        478633.      -0.721900E+010   4944.41       0.436618E+007  0.221405E+007
  774.346        478633.      -0.704713E+010   4941.79       0.436121E+007  0.220811E+007
  805.969        478633.      -0.687391E+010   4939.15       0.435619E+007  0.220212E+007
  837.592        478633.      -0.669949E+010   4936.49       0.435114E+007  0.219608E+007
  869.215        478633.      -0.652398E+010   4933.80       0.434605E+007  0.219000E+007
  900.838        478633.      -0.634749E+010   4931.10       0.434092E+007  0.218387E+007
  932.462        478633.      -0.617014E+010   4928.38       0.433577E+007  0.217770E+007
  964.085        478633.      -0.599199E+010   4925.64       0.433058E+007  0.217151E+007
  995.708        478633.      -0.581313E+010   4922.88       0.432537E+007  0.216527E+007
  1027.33        478633.      -0.563363E+010   4920.12       0.432014E+007  0.215901E+007
  1058.95        478633.      -0.545354E+010   4917.33       0.431489E+007  0.215272E+007
  1090.58        478633.      -0.527291E+010   4914.54       0.430961E+007  0.214640E+007
  1122.20        478633.      -0.509179E+010   4911.73       0.430431E+007  0.214006E+007
  1153.82        478633.      -0.491023E+010   4908.91       0.429900E+007  0.213369E+007
  1185.45        478633.      -0.472826E+010   4906.08       0.429367E+007  0.212730E+007
  1217.07        478633.      -0.454592E+010   4903.24       0.428832E+007  0.212089E+007
  1248.69        478633.      -0.436324E+010   4900.39       0.428296E+007  0.211446E+007
  1280.32        478633.      -0.418025E+010   4897.53       0.427758E+007  0.210801E+007
  1311.94        478633.      -0.399697E+010   4894.66       0.427218E+007  0.210154E+007
  1343.56        478633.      -0.381342E+010   4891.78       0.426678E+007  0.209505E+007
  1375.18        478633.      -0.362963E+010   4888.89       0.426136E+007  0.208854E+007
  1406.81        478633.      -0.344562E+010   4886.00       0.425593E+007  0.208202E+007
  1438.43        478633.      -0.326140E+010   4883.09       0.425048E+007  0.207548E+007
  1470.05        478633.      -0.307699E+010   4880.18       0.424503E+007  0.206893E+007
  1501.68        478633.      -0.289240E+010   4877.25       0.423957E+007  0.206235E+007
  1533.30        478633.      -0.270766E+010   4874.33       0.423408E+007  0.205577E+007
  300.000        490599.      -0.813389E+010   4989.28       0.447025E+007  0.229969E+007
  331.623        490599.      -0.802392E+010   4987.65       0.446711E+007  0.229594E+007
  363.246        490599.      -0.790397E+010   4985.86       0.446368E+007  0.229186E+007
  394.869        490599.      -0.777555E+010   4983.95       0.446001E+007  0.228748E+007
  426.492        490599.      -0.763993E+010   4981.93       0.445613E+007  0.228286E+007
  458.115        490599.      -0.749819E+010   4979.82       0.445208E+007  0.227802E+007
  489.738        490599.      -0.735121E+010   4977.62       0.444787E+007  0.227300E+007
  521.362        490599.      -0.719975E+010   4975.35       0.444353E+007  0.226783E+007
  552.985        490599.      -0.704443E+010   4973.03       0.443907E+007  0.226251E+007
  584.608        490599.      -0.688576E+010   4970.65       0.443451E+007  0.225708E+007
  616.231        490599.      -0.672420E+010   4968.22       0.442987E+007  0.225154E+007
  647.854        490599.      -0.656011E+010   4965.75       0.442515E+007  0.224591E+007
  679.477        490599.      -0.639380E+010   4963.25       0.442036E+007  0.224020E+007
  711.100        490599.      -0.622553E+010   4960.71       0.441551E+007  0.223442E+007
  742.723        490599.      -0.605554E+010   4958.14       0.441061E+007  0.222857E+007
  774.346        490599.      -0.588403E+010   4955.54       0.440566E+007  0.222266E+007
  805.969        490599.      -0.571115E+010   4952.92       0.440066E+007  0.221669E+007
  837.592        490599.      -0.553706E+010   4950.28       0.439563E+007  0.221068E+007
  869.215        490599.      -0.536188E+010   4947.61       0.439056E+007  0.220462E+007
  900.838        490599.      -0.518572E+010   4944.93       0.438545E+007  0.219852E+007
  932.462        490599.      -0.500869E+010   4942.23       0.438032E+007  0.219239E+007
  964.085        490599.      -0.483087E+010   4939.51       0.437516E+007  0.218622E+007
  995.708        490599.      -0.465233E+010   4936.78       0.436997E+007  0.218001E+007
  1027.33        490599.      -0.447314E+010   4934.03       0.436475E+007  0.217378E+007
  1058.95        490599.      -0.429336E+010   4931.27       0.435952E+007  0.216751E+007
  1090.58        490599.      -0.411304E+010   4928.50       0.435426E+007  0.216123E+007
  1122.20        490599.      -0.393223E+010   4925.71       0.434899E+007  0.215491E+007
  1153.82        490599.      -0.375098E+010   4922.92       0.434369E+007  0.214857E+007
  1185.45        490599.      -0.356932E+010   4920.11       0.433838E+007  0.214221E+007
  1217.07        490599.      -0.338728E+010   4917.29       0.433306E+007  0.213583E+007
  1248.69        490599.      -0.320490E+010   4914.46       0.432771E+007  0.212942E+007
  1280.32        490599.      -0.302221E+010   4911.62       0.432235E+007  0.212300E+007
  1311.94        490599.      -0.283923E+010   4908.78       0.431698E+007  0.211656E+007
  1343.56        490599.      -0.265599E+010   4905.92       0.431160E+007  0.211010E+007
  1375.18        490599.      -0.247250E+010   4903.05       0.430620E+007  0.210362E+007
  1406.81        490599.      -0.228879E+010   4900.18       0.430079E+007  0.209713E+007
  1438.43        490599.      -0.210487E+010   4897.30       0.429537E+007  0.209062E+007
  1470.05        490599.      -0.192076E+010   4894.41       0.428993E+007  0.208410E+007
  1501.68        490599.      -0.173647E+010   4891.51       0.428449E+007  0.207755E+007
  1533.30        490599.      -0.155203E+010   4888.60       0.427903E+007  0.207100E+007
  300.000        502564.      -0.696100E+010   5002.64       0.451431E+007  0.231373E+007
  331.623        502564.      -0.685154E+010   5001.03       0.451120E+007  0.231002E+007
  363.246        502564.      -0.673210E+010   4999.26       0.450779E+007  0.230596E+007
  394.869        502564.      -0.660417E+010   4997.37       0.450414E+007  0.230161E+007
  426.492        502564.      -0.646902E+010   4995.36       0.450028E+007  0.229701E+007
  458.115        502564.      -0.632772E+010   4993.27       0.449625E+007  0.229220E+007
  489.738        502564.      -0.618118E+010   4991.09       0.449206E+007  0.228721E+007
  521.362        502564.      -0.603014E+010   4988.84       0.448774E+007  0.228206E+007
  552.985        502564.      -0.587522E+010   4986.53       0.448330E+007  0.227678E+007
  584.608        502564.      -0.571695E+010   4984.17       0.447877E+007  0.227137E+007
  616.231        502564.      -0.555577E+010   4981.77       0.447414E+007  0.226586E+007
  647.854        502564.      -0.539205E+010   4979.32       0.446944E+007  0.226026E+007
  679.477        502564.      -0.522610E+010   4976.83       0.446467E+007  0.225458E+007
  711.100        502564.      -0.505819E+010   4974.31       0.445984E+007  0.224882E+007
  742.723        502564.      -0.488855E+010   4971.76       0.445496E+007  0.224299E+007
  774.346        502564.      -0.471737E+010   4969.19       0.445003E+007  0.223711E+007
  805.969        502564.      -0.454482E+010   4966.59       0.444505E+007  0.223118E+007
  837.592        502564.      -0.437106E+010   4963.96       0.444004E+007  0.222519E+007
  869.215        502564.      -0.419620E+010   4961.32       0.443499E+007  0.221916E+007
  900.838        502564.      -0.402037E+010   4958.66       0.442990E+007  0.221309E+007
  932.462        502564.      -0.384365E+010   4955.98       0.442479E+007  0.220698E+007
  964.085        502564.      -0.366614E+010   4953.28       0.441964E+007  0.220083E+007
  995.708        502564.      -0.348790E+010   4950.57       0.441448E+007  0.219466E+007
  1027.33        502564.      -0.330902E+010   4947.85       0.440928E+007  0.218845E+007
  1058.95        502564.      -0.312954E+010   4945.11       0.440407E+007  0.218222E+007
  1090.58        502564.      -0.294952E+010   4942.35       0.439883E+007  0.217595E+007
  1122.20        502564.      -0.276902E+010   4939.59       0.439358E+007  0.216967E+007
  1153.82        502564.      -0.258806E+010   4936.81       0.438830E+007  0.216336E+007
  1185.45        502564.      -0.240669E+010   4934.03       0.438301E+007  0.215702E+007
  1217.07        502564.      -0.222495E+010   4931.23       0.437770E+007  0.215067E+007
  1248.69        502564.      -0.204287E+010   4928.42       0.437238E+007  0.214429E+007
  1280.32        502564.      -0.186047E+010   4925.61       0.436704E+007  0.213790E+007
  1311.94        502564.      -0.167778E+010   4922.78       0.436169E+007  0.213148E+007
  1343.56        502564.      -0.149483E+010   4919.95       0.435633E+007  0.212505E+007
  1375.18        502564.      -0.131163E+010   4917.10       0.435095E+007  0.211861E+007
  1406.81        502564.      -0.112821E+010   4914.25       0.434556E+007  0.211214E+007
  1438.43        502564.      -0.944582E+009   4911.39       0.434016E+007  0.210566E+007
  1470.05        502564.      -0.760763E+009   4908.52       0.433474E+007  0.209916E+007
  1501.68        502564.      -0.576769E+009   4905.65       0.432932E+007  0.209265E+007
  1533.30        502564.      -0.392613E+009   4902.76       0.432388E+007  0.208613E+007
  300.000        514530.      -0.578476E+010   5015.91       0.455831E+007  0.232770E+007
  331.623        514530.      -0.567580E+010   5014.31       0.455521E+007  0.232401E+007
  363.246        514530.      -0.555685E+010   5012.56       0.455182E+007  0.231998E+007
  394.869        514530.      -0.542940E+010   5010.68       0.454820E+007  0.231565E+007
  426.492        514530.      -0.529471E+010   5008.70       0.454436E+007  0.231108E+007
  458.115        514530.      -0.515386E+010   5006.62       0.454034E+007  0.230630E+007
  489.738        514530.      -0.500774E+010   5004.46       0.453617E+007  0.230134E+007
  521.362        514530.      -0.485711E+010   5002.23       0.453187E+007  0.229622E+007
  552.985        514530.      -0.470259E+010   4999.94       0.452745E+007  0.229096E+007
  584.608        514530.      -0.454471E+010   4997.60       0.452294E+007  0.228558E+007
  616.231        514530.      -0.438390E+010   4995.21       0.451834E+007  0.228010E+007
  647.854        514530.      -0.422054E+010   4992.78       0.451365E+007  0.227452E+007
  679.477        514530.      -0.405494E+010   4990.32       0.450891E+007  0.226886E+007
  711.100        514530.      -0.388738E+010   4987.82       0.450410E+007  0.226313E+007
  742.723        514530.      -0.371807E+010   4985.29       0.449923E+007  0.225734E+007
  774.346        514530.      -0.354722E+010   4982.73       0.449432E+007  0.225148E+007
  805.969        514530.      -0.337500E+010   4980.15       0.448936E+007  0.224557E+007
  837.592        514530.      -0.320155E+010   4977.55       0.448437E+007  0.223961E+007
  869.215        514530.      -0.302701E+010   4974.93       0.447933E+007  0.223361E+007
  900.838        514530.      -0.285149E+010   4972.28       0.447427E+007  0.222756E+007
  932.462        514530.      -0.267507E+010   4969.62       0.446917E+007  0.222148E+007
  964.085        514530.      -0.249786E+010   4966.95       0.446405E+007  0.221536E+007
  995.708        514530.      -0.231993E+010   4964.26       0.445890E+007  0.220921E+007
  1027.33        514530.      -0.214134E+010   4961.55       0.445373E+007  0.220303E+007
  1058.95        514530.      -0.196215E+010   4958.83       0.444853E+007  0.219682E+007
  1090.58        514530.      -0.178243E+010   4956.10       0.444331E+007  0.219059E+007
  1122.20        514530.      -0.160221E+010   4953.36       0.443808E+007  0.218433E+007
  1153.82        514530.      -0.142154E+010   4950.60       0.443282E+007  0.217805E+007
  1185.45        514530.      -0.124046E+010   4947.84       0.442755E+007  0.217174E+007
  1217.07        514530.      -0.105901E+010   4945.06       0.442226E+007  0.216541E+007
  1248.69        514530.      -0.877208E+009   4942.28       0.441696E+007  0.215906E+007
  1280.32        514530.      -0.695092E+009   4939.48       0.441164E+007  0.215270E+007
  1311.94        514530.      -0.512687E+009   4936.68       0.440631E+007  0.214631E+007
  1343.56        514530.      -0.330015E+009   4933.86       0.440097E+007  0.213991E+007
  1375.18        514530.      -0.147099E+009   4931.04       0.439561E+007  0.213349E+007
  1406.81        514530.       0.360428E+008   4928.21       0.439024E+007  0.212705E+007
  1438.43        514530.       0.219391E+009   4925.37       0.438486E+007  0.212060E+007
  1470.05        514530.       0.402930E+009   4922.53       0.437946E+007  0.211413E+007
  1501.68        514530.       0.586645E+009   4919.67       0.437406E+007  0.210765E+007
  1533.30        514530.       0.770520E+009   4916.81       0.436865E+007  0.210115E+007
  300.000        526496.      -0.460522E+010   5029.08       0.460223E+007  0.234159E+007
  331.623        526496.      -0.449676E+010   5027.50       0.459915E+007  0.233792E+007
  363.246        526496.      -0.437829E+010   5025.76       0.459578E+007  0.233391E+007
  394.869        526496.      -0.425131E+010   5023.91       0.459218E+007  0.232962E+007
  426.492        526496.      -0.411707E+010   5021.94       0.458836E+007  0.232508E+007
  458.115        526496.      -0.397665E+010   5019.88       0.458436E+007  0.232032E+007
  489.738        526496.      -0.383096E+010   5017.74       0.458021E+007  0.231538E+007
  521.362        526496.      -0.368073E+010   5015.53       0.457593E+007  0.231029E+007
  552.985        526496.      -0.352660E+010   5013.26       0.457153E+007  0.230506E+007
  584.608        526496.      -0.336909E+010   5010.93       0.456704E+007  0.229970E+007
  616.231        526496.      -0.320865E+010   5008.56       0.456245E+007  0.229425E+007
  647.854        526496.      -0.304564E+010   5006.15       0.455779E+007  0.228870E+007
  679.477        526496.      -0.288038E+010   5003.71       0.455306E+007  0.228307E+007
  711.100        526496.      -0.271315E+010   5001.23       0.454827E+007  0.227736E+007
  742.723        526496.      -0.254417E+010   4998.72       0.454342E+007  0.227159E+007
  774.346        526496.      -0.237365E+010   4996.18       0.453853E+007  0.226576E+007
  805.969        526496.      -0.220174E+010   4993.62       0.453359E+007  0.225988E+007
  837.592        526496.      -0.202860E+010   4991.03       0.452862E+007  0.225394E+007
  869.215        526496.      -0.185437E+010   4988.43       0.452360E+007  0.224797E+007
  900.838        526496.      -0.167914E+010   4985.81       0.451855E+007  0.224195E+007
  932.462        526496.      -0.150303E+010   4983.17       0.451348E+007  0.223589E+007
  964.085        526496.      -0.132611E+010   4980.51       0.450837E+007  0.222980E+007
  995.708        526496.      -0.114846E+010   4977.84       0.450324E+007  0.222368E+007
  1027.33        526496.      -0.970161E+009   4975.16       0.449809E+007  0.221752E+007
  1058.95        526496.      -0.791261E+009   4972.46       0.449291E+007  0.221134E+007
  1090.58        526496.      -0.611819E+009   4969.75       0.448771E+007  0.220513E+007
  1122.20        526496.      -0.431881E+009   4967.02       0.448250E+007  0.219890E+007
  1153.82        526496.      -0.251491E+009   4964.29       0.447726E+007  0.219264E+007
  1185.45        526496.      -0.706896E+008   4961.54       0.447201E+007  0.218636E+007
  1217.07        526496.       0.110490E+009   4958.79       0.446674E+007  0.218006E+007
  1248.69        526496.       0.292015E+009   4956.02       0.446145E+007  0.217374E+007
  1280.32        526496.       0.473857E+009   4953.25       0.445616E+007  0.216740E+007
  1311.94        526496.       0.655990E+009   4950.47       0.445084E+007  0.216104E+007
  1343.56        526496.       0.838389E+009   4947.67       0.444552E+007  0.215467E+007
  1375.18        526496.       0.102103E+010   4944.87       0.444018E+007  0.214828E+007
  1406.81        526496.       0.120390E+010   4942.06       0.443483E+007  0.214187E+007
  1438.43        526496.       0.138698E+010   4939.25       0.442947E+007  0.213544E+007
  1470.05        526496.       0.157025E+010   4936.42       0.442410E+007  0.212900E+007
  1501.68        526496.       0.175370E+010   4933.59       0.441871E+007  0.212255E+007
  1533.30        526496.       0.193730E+010   4930.75       0.441332E+007  0.211608E+007
  300.000        538462.      -0.342243E+010   5042.16       0.464608E+007  0.235539E+007
  331.623        538462.      -0.331446E+010   5040.59       0.464302E+007  0.235175E+007
  363.246        538462.      -0.319648E+010   5038.88       0.463967E+007  0.234777E+007
  394.869        538462.      -0.306995E+010   5037.03       0.463608E+007  0.234350E+007
  426.492        538462.      -0.293615E+010   5035.08       0.463228E+007  0.233899E+007
  458.115        538462.      -0.279616E+010   5033.04       0.462831E+007  0.233426E+007
  489.738        538462.      -0.265088E+010   5030.92       0.462418E+007  0.232935E+007
  521.362        538462.      -0.250104E+010   5028.73       0.461991E+007  0.232428E+007
  552.985        538462.      -0.234729E+010   5026.48       0.461554E+007  0.231907E+007
  584.608        538462.      -0.219015E+010   5024.17       0.461106E+007  0.231374E+007
  616.231        538462.      -0.203006E+010   5021.82       0.460649E+007  0.230831E+007
  647.854        538462.      -0.186740E+010   5019.43       0.460185E+007  0.230279E+007
  679.477        538462.      -0.170248E+010   5017.00       0.459714E+007  0.229718E+007
  711.100        538462.      -0.153558E+010   5014.54       0.459237E+007  0.229150E+007
  742.723        538462.      -0.136692E+010   5012.05       0.458754E+007  0.228576E+007
  774.346        538462.      -0.119671E+010   5009.53       0.458266E+007  0.227995E+007
  805.969        538462.      -0.102511E+010   5006.99       0.457775E+007  0.227410E+007
  837.592        538462.      -0.852272E+009   5004.42       0.457279E+007  0.226819E+007
  869.215        538462.      -0.678331E+009   5001.84       0.456779E+007  0.226224E+007
  900.838        538462.      -0.503397E+009   4999.23       0.456276E+007  0.225624E+007
  932.462        538462.      -0.327570E+009   4996.61       0.455770E+007  0.225021E+007
  964.085        538462.      -0.150936E+009   4993.98       0.455262E+007  0.224415E+007
  995.708        538462.       0.264274E+008   4991.33       0.454750E+007  0.223805E+007
  1027.33        538462.       0.204451E+009   4988.66       0.454237E+007  0.223192E+007
  1058.95        538462.       0.383075E+009   4985.98       0.453721E+007  0.222577E+007
  1090.58        538462.       0.562244E+009   4983.29       0.453203E+007  0.221959E+007
  1122.20        538462.       0.741910E+009   4980.59       0.452683E+007  0.221338E+007
  1153.82        538462.       0.922029E+009   4977.87       0.452161E+007  0.220715E+007
  1185.45        538462.       0.110256E+010   4975.15       0.451638E+007  0.220090E+007
  1217.07        538462.       0.128348E+010   4972.41       0.451113E+007  0.219462E+007
  1248.69        538462.       0.146473E+010   4969.67       0.450587E+007  0.218833E+007
  1280.32        538462.       0.164631E+010   4966.91       0.450058E+007  0.218202E+007
  1311.94        538462.       0.182818E+010   4964.15       0.449529E+007  0.217568E+007
  1343.56        538462.       0.201032E+010   4961.38       0.448999E+007  0.216933E+007
  1375.18        538462.       0.219270E+010   4958.60       0.448467E+007  0.216297E+007
  1406.81        538462.       0.237531E+010   4955.81       0.447934E+007  0.215659E+007
  1438.43        538462.       0.255813E+010   4953.01       0.447399E+007  0.215019E+007
  1470.05        538462.       0.274113E+010   4950.21       0.446864E+007  0.214378E+007
  1501.68        538462.       0.292432E+010   4947.40       0.446328E+007  0.213735E+007
  1533.30        538462.       0.310766E+010   4944.58       0.445790E+007  0.213091E+007
  300.000        550428.      -0.223646E+010   5055.15       0.468985E+007  0.236912E+007
  331.623        550428.      -0.212897E+010   5053.60       0.468681E+007  0.236551E+007
  363.246        550428.      -0.201145E+010   5051.90       0.468349E+007  0.236155E+007
  394.869        550428.      -0.188538E+010   5050.07       0.467992E+007  0.235731E+007
  426.492        550428.      -0.175202E+010   5048.14       0.467614E+007  0.235282E+007
  458.115        550428.      -0.161244E+010   5046.11       0.467218E+007  0.234811E+007
  489.738        550428.      -0.146756E+010   5044.01       0.466807E+007  0.234323E+007
  521.362        550428.      -0.131811E+010   5041.83       0.466383E+007  0.233819E+007
  552.985        550428.      -0.116473E+010   5039.60       0.465947E+007  0.233300E+007
  584.608        550428.      -0.100795E+010   5037.31       0.465501E+007  0.232770E+007
  616.231        550428.      -0.848210E+009   5034.98       0.465046E+007  0.232230E+007
  647.854        550428.      -0.685886E+009   5032.61       0.464584E+007  0.231680E+007
  679.477        550428.      -0.521296E+009   5030.20       0.464114E+007  0.231122E+007
  711.100        550428.      -0.354711E+009   5027.75       0.463639E+007  0.230557E+007
  742.723        550428.      -0.186364E+009   5025.28       0.463158E+007  0.229985E+007
  774.346        550428.      -0.164544E+008   5022.78       0.462672E+007  0.229407E+007
  805.969        550428.       0.154846E+009   5020.26       0.462182E+007  0.228823E+007
  837.592        550428.       0.327387E+009   5017.71       0.461688E+007  0.228235E+007
  869.215        550428.       0.501040E+009   5015.15       0.461190E+007  0.227642E+007
  900.838        550428.       0.675689E+009   5012.56       0.460689E+007  0.227046E+007
  932.462        550428.       0.851237E+009   5009.96       0.460185E+007  0.226445E+007
  964.085        550428.       0.102759E+010   5007.34       0.459678E+007  0.225841E+007
  995.708        550428.       0.120468E+010   5004.71       0.459169E+007  0.225234E+007
  1027.33        550428.       0.138244E+010   5002.06       0.458657E+007  0.224624E+007
  1058.95        550428.       0.156079E+010   4999.40       0.458143E+007  0.224011E+007
  1090.58        550428.       0.173970E+010   4996.73       0.457627E+007  0.223395E+007
  1122.20        550428.       0.191910E+010   4994.05       0.457109E+007  0.222777E+007
  1153.82        550428.       0.209896E+010   4991.35       0.456589E+007  0.222157E+007
  1185.45        550428.       0.227923E+010   4988.65       0.456067E+007  0.221534E+007
  1217.07        550428.       0.245989E+010   4985.93       0.455544E+007  0.220909E+007
  1248.69        550428.       0.264089E+010   4983.21       0.455020E+007  0.220282E+007
  1280.32        550428.       0.282221E+010   4980.47       0.454493E+007  0.219654E+007
  1311.94        550428.       0.300382E+010   4977.73       0.453966E+007  0.219023E+007
  1343.56        550428.       0.318571E+010   4974.98       0.453437E+007  0.218391E+007
  1375.18        550428.       0.336784E+010   4972.22       0.452907E+007  0.217757E+007
  1406.81        550428.       0.355019E+010   4969.45       0.452376E+007  0.217121E+007
  1438.43        550428.       0.373275E+010   4966.68       0.451844E+007  0.216484E+007
  1470.05        550428.       0.391551E+010   4963.89       0.451310E+007  0.215846E+007
  1501.68        550428.       0.409844E+010   4961.10       0.450776E+007  0.215206E+007
  1533.30        550428.       0.428154E+010   4958.31       0.450240E+007  0.214564E+007
  300.000        562394.      -0.104736E+010   5068.05       0.473356E+007  0.238278E+007
  331.623        562394.      -0.940335E+009   5066.52       0.473054E+007  0.237919E+007
  363.246        562394.      -0.823273E+009   5064.83       0.472724E+007  0.237526E+007
  394.869        562394.      -0.697641E+009   5063.02       0.472368E+007  0.237104E+007
  426.492        562394.      -0.564709E+009   5061.11       0.471992E+007  0.236657E+007
  458.115        562394.      -0.425546E+009   5059.10       0.471598E+007  0.236189E+007
  489.738        562394.      -0.281055E+009   5057.01       0.471189E+007  0.235703E+007
  521.362        562394.      -0.131986E+009   5054.85       0.470767E+007  0.235202E+007
  552.985        562394.       0.210272E+008   5052.64       0.470333E+007  0.234686E+007
  584.608        562394.       0.177457E+009   5050.37       0.469888E+007  0.234158E+007
  616.231        562394.       0.336857E+009   5048.05       0.469435E+007  0.233620E+007
  647.854        562394.       0.498852E+009   5045.69       0.468975E+007  0.233073E+007
  679.477        562394.       0.663122E+009   5043.30       0.468507E+007  0.232517E+007
  711.100        562394.       0.829395E+009   5040.88       0.468034E+007  0.231955E+007
  742.723        562394.       0.997438E+009   5038.42       0.467555E+007  0.231385E+007
  774.346        562394.       0.116705E+010   5035.94       0.467071E+007  0.230810E+007
  805.969        562394.       0.133806E+010   5033.44       0.466582E+007  0.230229E+007
  837.592        562394.       0.151032E+010   5030.91       0.466090E+007  0.229643E+007
  869.215        562394.       0.168369E+010   5028.36       0.465594E+007  0.229053E+007
  900.838        562394.       0.185806E+010   5025.80       0.465095E+007  0.228459E+007
  932.462        562394.       0.203334E+010   5023.21       0.464592E+007  0.227861E+007
  964.085        562394.       0.220943E+010   5020.61       0.464087E+007  0.227259E+007
  995.708        562394.       0.238625E+010   5018.00       0.463580E+007  0.226654E+007
  1027.33        562394.       0.256374E+010   5015.37       0.463069E+007  0.226047E+007
  1058.95        562394.       0.274184E+010   5012.73       0.462557E+007  0.225436E+007
  1090.58        562394.       0.292048E+010   5010.08       0.462043E+007  0.224823E+007
  1122.20        562394.       0.309963E+010   5007.41       0.461527E+007  0.224207E+007
  1153.82        562394.       0.327924E+010   5004.74       0.461008E+007  0.223589E+007
  1185.45        562394.       0.345926E+010   5002.05       0.460489E+007  0.222969E+007
  1217.07        562394.       0.363966E+010   4999.36       0.459967E+007  0.222347E+007
  1248.69        562394.       0.382042E+010   4996.65       0.459444E+007  0.221723E+007
  1280.32        562394.       0.400149E+010   4993.94       0.458920E+007  0.221097E+007
  1311.94        562394.       0.418286E+010   4991.21       0.458394E+007  0.220469E+007
  1343.56        562394.       0.436449E+010   4988.48       0.457868E+007  0.219839E+007
  1375.18        562394.       0.454638E+010   4985.74       0.457339E+007  0.219208E+007
  1406.81        562394.       0.472849E+010   4982.99       0.456810E+007  0.218575E+007
  1438.43        562394.       0.491081E+010   4980.24       0.456279E+007  0.217940E+007
  1470.05        562394.       0.509332E+010   4977.47       0.455748E+007  0.217304E+007
  1501.68        562394.       0.527601E+010   4974.70       0.455215E+007  0.216667E+007
  1533.30        562394.       0.545886E+010   4971.93       0.454681E+007  0.216028E+007
  300.000        574359.       0.144839E+009   5080.87       0.477720E+007  0.239636E+007
  331.623        574359.       0.251396E+009   5079.35       0.477420E+007  0.239279E+007
  363.246        574359.       0.368008E+009   5077.68       0.477091E+007  0.238888E+007
  394.869        574359.       0.493203E+009   5075.88       0.476738E+007  0.238469E+007
  426.492        574359.       0.625716E+009   5073.98       0.476364E+007  0.238025E+007
  458.115        574359.       0.764476E+009   5071.99       0.475972E+007  0.237560E+007
  489.738        574359.       0.908581E+009   5069.92       0.475564E+007  0.237076E+007
  521.362        574359.       0.105728E+010   5067.78       0.475144E+007  0.236577E+007
  552.985        574359.       0.120993E+010   5065.58       0.474711E+007  0.236064E+007
  584.608        574359.       0.136602E+010   5063.33       0.474269E+007  0.235539E+007
  616.231        574359.       0.152509E+010   5061.03       0.473818E+007  0.235003E+007
  647.854        574359.       0.168676E+010   5058.69       0.473359E+007  0.234458E+007
  679.477        574359.       0.185072E+010   5056.32       0.472893E+007  0.233905E+007
  711.100        574359.       0.201669E+010   5053.91       0.472421E+007  0.233344E+007
  742.723        574359.       0.218443E+010   5051.47       0.471944E+007  0.232777E+007
  774.346        574359.       0.235375E+010   5049.01       0.471462E+007  0.232204E+007
  805.969        574359.       0.252448E+010   5046.52       0.470975E+007  0.231626E+007
  837.592        574359.       0.269646E+010   5044.01       0.470484E+007  0.231043E+007
  869.215        574359.       0.286956E+010   5041.48       0.469990E+007  0.230455E+007
  900.838        574359.       0.304366E+010   5038.94       0.469493E+007  0.229863E+007
  932.462        574359.       0.321867E+010   5036.37       0.468992E+007  0.229268E+007
  964.085        574359.       0.339450E+010   5033.79       0.468489E+007  0.228669E+007
  995.708        574359.       0.357107E+010   5031.19       0.467983E+007  0.228066E+007
  1027.33        574359.       0.374831E+010   5028.59       0.467474E+007  0.227461E+007
  1058.95        574359.       0.392615E+010   5025.96       0.466964E+007  0.226853E+007
  1090.58        574359.       0.410455E+010   5023.33       0.466451E+007  0.226242E+007
  1122.20        574359.       0.428345E+010   5020.68       0.465937E+007  0.225629E+007
  1153.82        574359.       0.446281E+010   5018.03       0.465420E+007  0.225014E+007
  1185.45        574359.       0.464258E+010   5015.36       0.464902E+007  0.224396E+007
  1217.07        574359.       0.482275E+010   5012.68       0.464383E+007  0.223776E+007
  1248.69        574359.       0.500326E+010   5010.00       0.463862E+007  0.223155E+007
  1280.32        574359.       0.518409E+010   5007.30       0.463339E+007  0.222531E+007
  1311.94        574359.       0.536522E+010   5004.60       0.462815E+007  0.221906E+007
  1343.56        574359.       0.554662E+010   5001.88       0.462290E+007  0.221278E+007
  1375.18        574359.       0.572827E+010   4999.16       0.461763E+007  0.220650E+007
  1406.81        574359.       0.591014E+010   4996.43       0.461236E+007  0.220019E+007
  1438.43        574359.       0.609223E+010   4993.70       0.460707E+007  0.219387E+007
  1470.05        574359.       0.627450E+010   4990.95       0.460177E+007  0.218754E+007
  1501.68        574359.       0.645696E+010   4988.20       0.459646E+007  0.218119E+007
  1533.30        574359.       0.663957E+010   4985.45       0.459115E+007  0.217483E+007
  300.000        586325.       0.134007E+010   5093.60       0.482078E+007  0.240986E+007
  331.623        586325.       0.144617E+010   5092.09       0.481779E+007  0.240632E+007
  363.246        586325.       0.156234E+010   5090.44       0.481452E+007  0.240244E+007
  394.869        586325.       0.168711E+010   5088.66       0.481101E+007  0.239827E+007
  426.492        586325.       0.181921E+010   5086.78       0.480729E+007  0.239385E+007
  458.115        586325.       0.195757E+010   5084.80       0.480338E+007  0.238922E+007
  489.738        586325.       0.210130E+010   5082.74       0.479933E+007  0.238441E+007
  521.362        586325.       0.224963E+010   5080.62       0.479514E+007  0.237944E+007
  552.985        586325.       0.240194E+010   5078.44       0.479083E+007  0.237434E+007
  584.608        586325.       0.255769E+010   5076.20       0.478643E+007  0.236911E+007
  616.231        586325.       0.271643E+010   5073.92       0.478193E+007  0.236378E+007
  647.854        586325.       0.287779E+010   5071.60       0.477736E+007  0.235835E+007
  679.477        586325.       0.304144E+010   5069.24       0.477272E+007  0.235285E+007
  711.100        586325.       0.320711E+010   5066.85       0.476802E+007  0.234726E+007
  742.723        586325.       0.337457E+010   5064.43       0.476326E+007  0.234162E+007
  774.346        586325.       0.354361E+010   5061.99       0.475846E+007  0.233591E+007
  805.969        586325.       0.371406E+010   5059.52       0.475361E+007  0.233015E+007
  837.592        586325.       0.388576E+010   5057.03       0.474872E+007  0.232434E+007
  869.215        586325.       0.405860E+010   5054.51       0.474379E+007  0.231849E+007
  900.838        586325.       0.423244E+010   5051.98       0.473883E+007  0.231260E+007
  932.462        586325.       0.440719E+010   5049.44       0.473384E+007  0.230666E+007
  964.085        586325.       0.458277E+010   5046.87       0.472883E+007  0.230070E+007
  995.708        586325.       0.475909E+010   5044.30       0.472378E+007  0.229470E+007
  1027.33        586325.       0.493608E+010   5041.71       0.471872E+007  0.228867E+007
  1058.95        586325.       0.511368E+010   5039.10       0.471363E+007  0.228261E+007
  1090.58        586325.       0.529183E+010   5036.49       0.470852E+007  0.227653E+007
  1122.20        586325.       0.547049E+010   5033.86       0.470339E+007  0.227042E+007
  1153.82        586325.       0.564961E+010   5031.22       0.469824E+007  0.226429E+007
  1185.45        586325.       0.582915E+010   5028.57       0.469308E+007  0.225814E+007
  1217.07        586325.       0.600908E+010   5025.91       0.468790E+007  0.225197E+007
  1248.69        586325.       0.618936E+010   5023.25       0.468271E+007  0.224578E+007
  1280.32        586325.       0.636996E+010   5020.57       0.467750E+007  0.223957E+007
  1311.94        586325.       0.655086E+010   5017.88       0.467228E+007  0.223334E+007
  1343.56        586325.       0.673203E+010   5015.19       0.466704E+007  0.222709E+007
  1375.18        586325.       0.691345E+010   5012.49       0.466180E+007  0.222083E+007
  1406.81        586325.       0.709509E+010   5009.78       0.465654E+007  0.221455E+007
  1438.43        586325.       0.727695E+010   5007.06       0.465127E+007  0.220825E+007
  1470.05        586325.       0.745900E+010   5004.34       0.464599E+007  0.220195E+007
  1501.68        586325.       0.764123E+010   5001.61       0.464070E+007  0.219562E+007
  1533.30        586325.       0.782362E+010   4998.87       0.463540E+007  0.218929E+007
  300.000        598291.       0.253829E+010   5106.25       0.486429E+007  0.242329E+007
  331.623        598291.       0.264395E+010   5104.75       0.486132E+007  0.241977E+007
  363.246        598291.       0.275968E+010   5103.11       0.485807E+007  0.241592E+007
  394.869        598291.       0.288402E+010   5101.35       0.485457E+007  0.241177E+007
  426.492        598291.       0.301572E+010   5099.48       0.485087E+007  0.240738E+007
  458.115        598291.       0.315370E+010   5097.52       0.484698E+007  0.240277E+007
  489.738        598291.       0.329705E+010   5095.48       0.484294E+007  0.239799E+007
  521.362        598291.       0.344503E+010   5093.38       0.483877E+007  0.239304E+007
  552.985        598291.       0.359699E+010   5091.21       0.483448E+007  0.238796E+007
  584.608        598291.       0.375241E+010   5088.99       0.483009E+007  0.238276E+007
  616.231        598291.       0.391083E+010   5086.73       0.482562E+007  0.237745E+007
  647.854        598291.       0.407188E+010   5084.42       0.482106E+007  0.237205E+007
  679.477        598291.       0.423523E+010   5082.08       0.481644E+007  0.236656E+007
  711.100        598291.       0.440062E+010   5079.71       0.481175E+007  0.236101E+007
  742.723        598291.       0.456779E+010   5077.30       0.480701E+007  0.235538E+007
  774.346        598291.       0.473655E+010   5074.88       0.480222E+007  0.234970E+007
  805.969        598291.       0.490673E+010   5072.42       0.479739E+007  0.234396E+007
  837.592        598291.       0.507818E+010   5069.95       0.479252E+007  0.233818E+007
  869.215        598291.       0.525075E+010   5067.46       0.478761E+007  0.233235E+007
  900.838        598291.       0.542434E+010   5064.94       0.478267E+007  0.232648E+007
  932.462        598291.       0.559885E+010   5062.41       0.477769E+007  0.232057E+007
  964.085        598291.       0.577417E+010   5059.87       0.477269E+007  0.231463E+007
  995.708        598291.       0.595025E+010   5057.31       0.476767E+007  0.230865E+007
  1027.33        598291.       0.612700E+010   5054.74       0.476262E+007  0.230265E+007
  1058.95        598291.       0.630436E+010   5052.15       0.475755E+007  0.229662E+007
  1090.58        598291.       0.648228E+010   5049.55       0.475245E+007  0.229056E+007
  1122.20        598291.       0.666071E+010   5046.94       0.474734E+007  0.228447E+007
  1153.82        598291.       0.683960E+010   5044.32       0.474221E+007  0.227837E+007
  1185.45        598291.       0.701891E+010   5041.69       0.473707E+007  0.227224E+007
  1217.07        598291.       0.719861E+010   5039.05       0.473190E+007  0.226609E+007
  1248.69        598291.       0.737866E+010   5036.40       0.472673E+007  0.225992E+007
  1280.32        598291.       0.755904E+010   5033.74       0.472153E+007  0.225374E+007
  1311.94        598291.       0.773972E+010   5031.08       0.471633E+007  0.224753E+007
  1343.56        598291.       0.792066E+010   5028.40       0.471111E+007  0.224131E+007
  1375.18        598291.       0.810186E+010   5025.72       0.470588E+007  0.223507E+007
  1406.81        598291.       0.828329E+010   5023.03       0.470064E+007  0.222882E+007
  1438.43        598291.       0.846492E+010   5020.33       0.469539E+007  0.222255E+007
  1470.05        598291.       0.864675E+010   5017.62       0.469013E+007  0.221626E+007
  1501.68        598291.       0.882876E+010   5014.91       0.468485E+007  0.220997E+007
  1533.30        598291.       0.901093E+010   5012.19       0.467957E+007  0.220365E+007
  300.000        610257.       0.373946E+010   5118.81       0.490773E+007  0.243665E+007
  331.623        610257.       0.384467E+010   5117.33       0.490478E+007  0.243316E+007
  363.246        610257.       0.395997E+010   5115.71       0.490155E+007  0.242932E+007
  394.869        610257.       0.408391E+010   5113.96       0.489807E+007  0.242520E+007
  426.492        610257.       0.421520E+010   5112.11       0.489438E+007  0.242083E+007
  458.115        610257.       0.435280E+010   5110.16       0.489051E+007  0.241625E+007
  489.738        610257.       0.449579E+010   5108.14       0.488649E+007  0.241149E+007
  521.362        610257.       0.464341E+010   5106.05       0.488234E+007  0.240657E+007
  552.985        610257.       0.479504E+010   5103.90       0.487807E+007  0.240151E+007
  584.608        610257.       0.495014E+010   5101.69       0.487369E+007  0.239633E+007
  616.231        610257.       0.510825E+010   5099.45       0.486923E+007  0.239104E+007
  647.854        610257.       0.526900E+010   5097.16       0.486469E+007  0.238567E+007
  679.477        610257.       0.543206E+010   5094.83       0.486009E+007  0.238021E+007
  711.100        610257.       0.559715E+010   5092.48       0.485542E+007  0.237467E+007
  742.723        610257.       0.576405E+010   5090.09       0.485070E+007  0.236907E+007
  774.346        610257.       0.593255E+010   5087.68       0.484592E+007  0.236341E+007
  805.969        610257.       0.610246E+010   5085.24       0.484111E+007  0.235770E+007
  837.592        610257.       0.627365E+010   5082.79       0.483625E+007  0.235194E+007
  869.215        610257.       0.644597E+010   5080.31       0.483136E+007  0.234613E+007
  900.838        610257.       0.661932E+010   5077.81       0.482643E+007  0.234028E+007
  932.462        610257.       0.679358E+010   5075.30       0.482147E+007  0.233440E+007
  964.085        610257.       0.696867E+010   5072.77       0.481649E+007  0.232848E+007
  995.708        610257.       0.714450E+010   5070.23       0.481148E+007  0.232253E+007
  1027.33        610257.       0.732102E+010   5067.68       0.480645E+007  0.231655E+007
  1058.95        610257.       0.749815E+010   5065.11       0.480139E+007  0.231054E+007
  1090.58        610257.       0.767584E+010   5062.53       0.479631E+007  0.230450E+007
  1122.20        610257.       0.785405E+010   5059.93       0.479122E+007  0.229844E+007
  1153.82        610257.       0.803271E+010   5057.33       0.478611E+007  0.229236E+007
  1185.45        610257.       0.821180E+010   5054.72       0.478098E+007  0.228626E+007
  1217.07        610257.       0.839128E+010   5052.10       0.477583E+007  0.228013E+007
  1248.69        610257.       0.857112E+010   5049.46       0.477067E+007  0.227399E+007
  1280.32        610257.       0.875128E+010   5046.82       0.476549E+007  0.226782E+007
  1311.94        610257.       0.893174E+010   5044.17       0.476031E+007  0.226164E+007
  1343.56        610257.       0.911247E+010   5041.52       0.475510E+007  0.225544E+007
  1375.18        610257.       0.929345E+010   5038.85       0.474989E+007  0.224923E+007
  1406.81        610257.       0.947466E+010   5036.18       0.474467E+007  0.224300E+007
  1438.43        610257.       0.965609E+010   5033.50       0.473943E+007  0.223676E+007
  1470.05        610257.       0.983771E+010   5030.81       0.473419E+007  0.223050E+007
  1501.68        610257.       0.100195E+011   5028.12       0.472893E+007  0.222422E+007
  1533.30        610257.       0.102015E+011   5025.42       0.472366E+007  0.221794E+007
  300.000        622223.       0.494352E+010   5131.30       0.495111E+007  0.244994E+007
  331.623        622223.       0.504830E+010   5129.83       0.494818E+007  0.244647E+007
  363.246        622223.       0.516318E+010   5128.22       0.494496E+007  0.244266E+007
  394.869        622223.       0.528671E+010   5126.49       0.494150E+007  0.243856E+007
  426.492        622223.       0.541761E+010   5124.65       0.493783E+007  0.243421E+007
  458.115        622223.       0.555484E+010   5122.72       0.493398E+007  0.242966E+007
  489.738        622223.       0.569747E+010   5120.71       0.492998E+007  0.242492E+007
  521.362        622223.       0.584475E+010   5118.63       0.492584E+007  0.242002E+007
  552.985        622223.       0.599604E+010   5116.50       0.492158E+007  0.241498E+007
  584.608        622223.       0.615082E+010   5114.31       0.491723E+007  0.240983E+007
  616.231        622223.       0.630863E+010   5112.08       0.491278E+007  0.240456E+007
  647.854        622223.       0.646908E+010   5109.81       0.490826E+007  0.239921E+007
  679.477        622223.       0.663186E+010   5107.50       0.490367E+007  0.239377E+007
  711.100        622223.       0.679668E+010   5105.16       0.489902E+007  0.238826E+007
  742.723        622223.       0.696331E+010   5102.79       0.489431E+007  0.238268E+007
  774.346        622223.       0.713154E+010   5100.40       0.488955E+007  0.237705E+007
  805.969        622223.       0.730120E+010   5097.98       0.488475E+007  0.237136E+007
  837.592        622223.       0.747214E+010   5095.54       0.487991E+007  0.236562E+007
  869.215        622223.       0.764421E+010   5093.08       0.487504E+007  0.235984E+007
  900.838        622223.       0.781731E+010   5090.60       0.487013E+007  0.235401E+007
  932.462        622223.       0.799134E+010   5088.10       0.486519E+007  0.234815E+007
  964.085        622223.       0.816619E+010   5085.59       0.486022E+007  0.234225E+007
  995.708        622223.       0.834180E+010   5083.07       0.485522E+007  0.233632E+007
  1027.33        622223.       0.851809E+010   5080.53       0.485020E+007  0.233037E+007
  1058.95        622223.       0.869500E+010   5077.98       0.484516E+007  0.232438E+007
  1090.58        622223.       0.887247E+010   5075.41       0.484010E+007  0.231837E+007
  1122.20        622223.       0.905046E+010   5072.84       0.483502E+007  0.231233E+007
  1153.82        622223.       0.922891E+010   5070.25       0.482993E+007  0.230627E+007
  1185.45        622223.       0.940778E+010   5067.66       0.482481E+007  0.230019E+007
  1217.07        622223.       0.958705E+010   5065.05       0.481968E+007  0.229409E+007
  1248.69        622223.       0.976667E+010   5062.44       0.481454E+007  0.228797E+007
  1280.32        622223.       0.994662E+010   5059.81       0.480938E+007  0.228183E+007
  1311.94        622223.       0.101269E+011   5057.18       0.480421E+007  0.227567E+007
  1343.56        622223.       0.103074E+011   5054.54       0.479902E+007  0.226950E+007
  1375.18        622223.       0.104882E+011   5051.90       0.479383E+007  0.226331E+007
  1406.81        622223.       0.106692E+011   5049.24       0.478862E+007  0.225710E+007
  1438.43        622223.       0.108504E+011   5046.58       0.478340E+007  0.225088E+007
  1470.05        622223.       0.110318E+011   5043.91       0.477817E+007  0.224464E+007
  1501.68        622223.       0.112134E+011   5041.24       0.477293E+007  0.223839E+007
  1533.30        622223.       0.113952E+011   5038.55       0.476768E+007  0.223213E+007
  300.000        634188.       0.615044E+010   5143.70       0.499443E+007  0.246316E+007
  331.623        634188.       0.625480E+010   5142.25       0.499151E+007  0.245971E+007
  363.246        634188.       0.636926E+010   5140.65       0.498831E+007  0.245592E+007
  394.869        634188.       0.649238E+010   5138.93       0.498487E+007  0.245185E+007
  426.492        634188.       0.662291E+010   5137.11       0.498122E+007  0.244752E+007
  458.115        634188.       0.675976E+010   5135.19       0.497738E+007  0.244299E+007
  489.738        634188.       0.690204E+010   5133.20       0.497339E+007  0.243827E+007
  521.362        634188.       0.704898E+010   5131.14       0.496927E+007  0.243340E+007
  552.985        634188.       0.719996E+010   5129.02       0.496504E+007  0.242838E+007
  584.608        634188.       0.735442E+010   5126.85       0.496070E+007  0.242325E+007
  616.231        634188.       0.751193E+010   5124.63       0.495627E+007  0.241801E+007
  647.854        634188.       0.767209E+010   5122.38       0.495176E+007  0.241268E+007
  679.477        634188.       0.783459E+010   5120.09       0.494719E+007  0.240727E+007
  711.100        634188.       0.799914E+010   5117.76       0.494255E+007  0.240178E+007
  742.723        634188.       0.816550E+010   5115.41       0.493786E+007  0.239622E+007
  774.346        634188.       0.833348E+010   5113.03       0.493312E+007  0.239061E+007
  805.969        634188.       0.850289E+010   5110.63       0.492833E+007  0.238494E+007
  837.592        634188.       0.867358E+010   5108.20       0.492351E+007  0.237922E+007
  869.215        634188.       0.884542E+010   5105.76       0.491865E+007  0.237346E+007
  900.838        634188.       0.901829E+010   5103.30       0.491375E+007  0.236766E+007
  932.462        634188.       0.919208E+010   5100.82       0.490883E+007  0.236182E+007
  964.085        634188.       0.936671E+010   5098.32       0.490387E+007  0.235595E+007
  995.708        634188.       0.954210E+010   5095.81       0.489890E+007  0.235004E+007
  1027.33        634188.       0.971817E+010   5093.29       0.489389E+007  0.234411E+007
  1058.95        634188.       0.989486E+010   5090.76       0.488887E+007  0.233814E+007
  1090.58        634188.       0.100721E+011   5088.21       0.488382E+007  0.233215E+007
  1122.20        634188.       0.102499E+011   5085.65       0.487876E+007  0.232614E+007
  1153.82        634188.       0.104281E+011   5083.09       0.487368E+007  0.232010E+007
  1185.45        634188.       0.106068E+011   5080.51       0.486858E+007  0.231404E+007
  1217.07        634188.       0.107859E+011   5077.92       0.486347E+007  0.230796E+007
  1248.69        634188.       0.109653E+011   5075.32       0.485834E+007  0.230187E+007
  1280.32        634188.       0.111450E+011   5072.72       0.485319E+007  0.229575E+007
  1311.94        634188.       0.113251E+011   5070.10       0.484804E+007  0.228962E+007
  1343.56        634188.       0.115054E+011   5067.48       0.484287E+007  0.228346E+007
  1375.18        634188.       0.116860E+011   5064.85       0.483769E+007  0.227730E+007
  1406.81        634188.       0.118668E+011   5062.21       0.483250E+007  0.227111E+007
  1438.43        634188.       0.120478E+011   5059.57       0.482729E+007  0.226492E+007
  1470.05        634188.       0.122290E+011   5056.92       0.482208E+007  0.225871E+007
  1501.68        634188.       0.124104E+011   5054.26       0.481686E+007  0.225248E+007
  1533.30        634188.       0.125920E+011   5051.60       0.481162E+007  0.224624E+007
  300.000        646154.       0.736017E+010   5156.03       0.503769E+007  0.247631E+007
  331.623        646154.       0.746411E+010   5154.59       0.503479E+007  0.247288E+007
  363.246        646154.       0.757816E+010   5153.00       0.503160E+007  0.246911E+007
  394.869        646154.       0.770089E+010   5151.30       0.502818E+007  0.246506E+007
  426.492        646154.       0.783104E+010   5149.49       0.502454E+007  0.246076E+007
  458.115        646154.       0.796753E+010   5147.59       0.502072E+007  0.245625E+007
  489.738        646154.       0.810946E+010   5145.61       0.501675E+007  0.245156E+007
  521.362        646154.       0.825607E+010   5143.57       0.501265E+007  0.244670E+007
  552.985        646154.       0.840673E+010   5141.46       0.500842E+007  0.244171E+007
  584.608        646154.       0.856089E+010   5139.31       0.500410E+007  0.243660E+007
  616.231        646154.       0.871810E+010   5137.11       0.499969E+007  0.243139E+007
  647.854        646154.       0.887798E+010   5134.87       0.499520E+007  0.242608E+007
  679.477        646154.       0.904021E+010   5132.59       0.499064E+007  0.242068E+007
  711.100        646154.       0.920449E+010   5130.28       0.498602E+007  0.241522E+007
  742.723        646154.       0.937060E+010   5127.94       0.498134E+007  0.240969E+007
  774.346        646154.       0.953833E+010   5125.58       0.497662E+007  0.240409E+007
  805.969        646154.       0.970750E+010   5123.19       0.497185E+007  0.239845E+007
  837.592        646154.       0.987795E+010   5120.79       0.496704E+007  0.239275E+007
  869.215        646154.       0.100496E+011   5118.36       0.496219E+007  0.238702E+007
  900.838        646154.       0.102222E+011   5115.91       0.495731E+007  0.238124E+007
  932.462        646154.       0.103958E+011   5113.45       0.495240E+007  0.237542E+007
  964.085        646154.       0.105702E+011   5110.97       0.494746E+007  0.236957E+007
  995.708        646154.       0.107453E+011   5108.48       0.494250E+007  0.236368E+007
  1027.33        646154.       0.109212E+011   5105.97       0.493751E+007  0.235777E+007
  1058.95        646154.       0.110977E+011   5103.46       0.493251E+007  0.235183E+007
  1090.58        646154.       0.112747E+011   5100.93       0.492748E+007  0.234586E+007
  1122.20        646154.       0.114523E+011   5098.38       0.492243E+007  0.233987E+007
  1153.82        646154.       0.116303E+011   5095.83       0.491736E+007  0.233385E+007
  1185.45        646154.       0.118088E+011   5093.27       0.491228E+007  0.232782E+007
  1217.07        646154.       0.119877E+011   5090.70       0.490718E+007  0.232176E+007
  1248.69        646154.       0.121669E+011   5088.12       0.490207E+007  0.231569E+007
  1280.32        646154.       0.123464E+011   5085.53       0.489694E+007  0.230959E+007
  1311.94        646154.       0.125263E+011   5082.93       0.489180E+007  0.230348E+007
  1343.56        646154.       0.127064E+011   5080.33       0.488664E+007  0.229735E+007
  1375.18        646154.       0.128868E+011   5077.72       0.488148E+007  0.229121E+007
  1406.81        646154.       0.130674E+011   5075.10       0.487630E+007  0.228505E+007
  1438.43        646154.       0.132482E+011   5072.47       0.487111E+007  0.227887E+007
  1470.05        646154.       0.134292E+011   5069.84       0.486592E+007  0.227269E+007
  1501.68        646154.       0.136104E+011   5067.19       0.486071E+007  0.226648E+007
  1533.30        646154.       0.137918E+011   5064.55       0.485549E+007  0.226027E+007
  300.000        658120.       0.857267E+010   5168.28       0.508088E+007  0.248939E+007
  331.623        658120.       0.867619E+010   5166.85       0.507800E+007  0.248598E+007
  363.246        658120.       0.878985E+010   5165.28       0.507483E+007  0.248224E+007
  394.869        658120.       0.891219E+010   5163.59       0.507142E+007  0.247821E+007
  426.492        658120.       0.904196E+010   5161.79       0.506780E+007  0.247393E+007
  458.115        658120.       0.917809E+010   5159.91       0.506400E+007  0.246944E+007
  489.738        658120.       0.931969E+010   5157.95       0.506005E+007  0.246477E+007
  521.362        658120.       0.946597E+010   5155.92       0.505596E+007  0.245994E+007
  552.985        658120.       0.961632E+010   5153.83       0.505175E+007  0.245497E+007
  584.608        658120.       0.977018E+010   5151.69       0.504744E+007  0.244988E+007
  616.231        658120.       0.992711E+010   5149.50       0.504305E+007  0.244469E+007
  647.854        658120.       0.100867E+011   5147.28       0.503857E+007  0.243940E+007
  679.477        658120.       0.102487E+011   5145.01       0.503403E+007  0.243403E+007
  711.100        658120.       0.104127E+011   5142.72       0.502942E+007  0.242859E+007
  742.723        658120.       0.105786E+011   5140.40       0.502476E+007  0.242308E+007
  774.346        658120.       0.107460E+011   5138.05       0.502005E+007  0.241751E+007
  805.969        658120.       0.109150E+011   5135.68       0.501530E+007  0.241188E+007
  837.592        658120.       0.110852E+011   5133.29       0.501050E+007  0.240621E+007
  869.215        658120.       0.112566E+011   5130.88       0.500567E+007  0.240049E+007
  900.838        658120.       0.114290E+011   5128.45       0.500081E+007  0.239474E+007
  932.462        658120.       0.116023E+011   5126.00       0.499591E+007  0.238894E+007
  964.085        658120.       0.117765E+011   5123.54       0.499099E+007  0.238311E+007
  995.708        658120.       0.119515E+011   5121.06       0.498604E+007  0.237725E+007
  1027.33        658120.       0.121271E+011   5118.57       0.498107E+007  0.237136E+007
  1058.95        658120.       0.123034E+011   5116.07       0.497607E+007  0.236544E+007
  1090.58        658120.       0.124803E+011   5113.56       0.497106E+007  0.235949E+007
  1122.20        658120.       0.126576E+011   5111.03       0.496603E+007  0.235352E+007
  1153.82        658120.       0.128355E+011   5108.50       0.496097E+007  0.234753E+007
  1185.45        658120.       0.130137E+011   5105.95       0.495591E+007  0.234152E+007
  1217.07        658120.       0.131924E+011   5103.40       0.495082E+007  0.233548E+007
  1248.69        658120.       0.133714E+011   5100.83       0.494572E+007  0.232943E+007
  1280.32        658120.       0.135508E+011   5098.26       0.494061E+007  0.232336E+007
  1311.94        658120.       0.137304E+011   5095.68       0.493549E+007  0.231727E+007
  1343.56        658120.       0.139104E+011   5093.09       0.493035E+007  0.231116E+007
  1375.18        658120.       0.140906E+011   5090.50       0.492520E+007  0.230504E+007
  1406.81        658120.       0.142710E+011   5087.89       0.492004E+007  0.229890E+007
  1438.43        658120.       0.144516E+011   5085.28       0.491487E+007  0.229275E+007
  1470.05        658120.       0.146325E+011   5082.67       0.490968E+007  0.228658E+007
  1501.68        658120.       0.148135E+011   5080.04       0.490449E+007  0.228040E+007
  1533.30        658120.       0.149947E+011   5077.41       0.489929E+007  0.227421E+007
  300.000        670086.       0.978790E+010   5180.45       0.512402E+007  0.250241E+007
  331.623        670086.       0.989102E+010   5179.04       0.512115E+007  0.249902E+007
  363.246        670086.       0.100043E+011   5177.48       0.511800E+007  0.249530E+007
  394.869        670086.       0.101262E+011   5175.80       0.511461E+007  0.249129E+007
  426.492        670086.       0.102556E+011   5174.02       0.511100E+007  0.248703E+007
  458.115        670086.       0.103914E+011   5172.15       0.510722E+007  0.248257E+007
  489.738        670086.       0.105327E+011   5170.20       0.510328E+007  0.247792E+007
  521.362        670086.       0.106787E+011   5168.19       0.509921E+007  0.247311E+007
  552.985        670086.       0.108287E+011   5166.11       0.509502E+007  0.246816E+007
  584.608        670086.       0.109823E+011   5163.99       0.509072E+007  0.246310E+007
  616.231        670086.       0.111389E+011   5161.82       0.508634E+007  0.245792E+007
  647.854        670086.       0.112982E+011   5159.61       0.508188E+007  0.245266E+007
  679.477        670086.       0.114599E+011   5157.36       0.507735E+007  0.244731E+007
  711.100        670086.       0.116237E+011   5155.08       0.507276E+007  0.244189E+007
  742.723        670086.       0.117893E+011   5152.78       0.506812E+007  0.243640E+007
  774.346        670086.       0.119566E+011   5150.44       0.506342E+007  0.243085E+007
  805.969        670086.       0.121253E+011   5148.09       0.505868E+007  0.242525E+007
  837.592        670086.       0.122953E+011   5145.71       0.505390E+007  0.241959E+007
  869.215        670086.       0.124664E+011   5143.31       0.504909E+007  0.241390E+007
  900.838        670086.       0.126386E+011   5140.90       0.504424E+007  0.240816E+007
  932.462        670086.       0.128117E+011   5138.47       0.503936E+007  0.240239E+007
  964.085        670086.       0.129857E+011   5136.02       0.503445E+007  0.239658E+007
  995.708        670086.       0.131605E+011   5133.56       0.502951E+007  0.239074E+007
  1027.33        670086.       0.133359E+011   5131.09       0.502456E+007  0.238487E+007
  1058.95        670086.       0.135120E+011   5128.60       0.501958E+007  0.237897E+007
  1090.58        670086.       0.136887E+011   5126.10       0.501458E+007  0.237305E+007
  1122.20        670086.       0.138658E+011   5123.59       0.500956E+007  0.236710E+007
  1153.82        670086.       0.140435E+011   5121.07       0.500452E+007  0.236113E+007
  1185.45        670086.       0.142216E+011   5118.55       0.499947E+007  0.235514E+007
  1217.07        670086.       0.144000E+011   5116.01       0.499440E+007  0.234912E+007
  1248.69        670086.       0.145789E+011   5113.46       0.498932E+007  0.234309E+007
  1280.32        670086.       0.147580E+011   5110.90       0.498422E+007  0.233704E+007
  1311.94        670086.       0.149375E+011   5108.34       0.497911E+007  0.233098E+007
  1343.56        670086.       0.151173E+011   5105.77       0.497398E+007  0.232489E+007
  1375.18        670086.       0.152973E+011   5103.19       0.496885E+007  0.231879E+007
  1406.81        670086.       0.154775E+011   5100.60       0.496370E+007  0.231268E+007
  1438.43        670086.       0.156580E+011   5098.01       0.495855E+007  0.230655E+007
  1470.05        670086.       0.158387E+011   5095.41       0.495338E+007  0.230040E+007
  1501.68        670086.       0.160195E+011   5092.80       0.494820E+007  0.229425E+007
  1533.30        670086.       0.162005E+011   5090.19       0.494301E+007  0.228807E+007
  300.000        682052.       0.110058E+011   5192.55       0.516710E+007  0.251535E+007
  331.623        682052.       0.111085E+011   5191.15       0.516425E+007  0.251199E+007
  363.246        682052.       0.112214E+011   5189.61       0.516111E+007  0.250829E+007
  394.869        682052.       0.113430E+011   5187.94       0.515773E+007  0.250430E+007
  426.492        682052.       0.114720E+011   5186.17       0.515415E+007  0.250007E+007
  458.115        682052.       0.116075E+011   5184.32       0.515038E+007  0.249562E+007
  489.738        682052.       0.117484E+011   5182.38       0.514645E+007  0.249099E+007
  521.362        682052.       0.118941E+011   5180.38       0.514239E+007  0.248621E+007
  552.985        682052.       0.120438E+011   5178.32       0.513822E+007  0.248128E+007
  584.608        682052.       0.121971E+011   5176.21       0.513394E+007  0.247624E+007
  616.231        682052.       0.123534E+011   5174.06       0.512958E+007  0.247109E+007
  647.854        682052.       0.125125E+011   5171.86       0.512513E+007  0.246584E+007
  679.477        682052.       0.126740E+011   5169.63       0.512062E+007  0.246051E+007
  711.100        682052.       0.128375E+011   5167.37       0.511604E+007  0.245511E+007
  742.723        682052.       0.130028E+011   5165.07       0.511141E+007  0.244964E+007
  774.346        682052.       0.131699E+011   5162.76       0.510673E+007  0.244412E+007
  805.969        682052.       0.133383E+011   5160.42       0.510200E+007  0.243854E+007
  837.592        682052.       0.135081E+011   5158.05       0.509724E+007  0.243291E+007
  869.215        682052.       0.136790E+011   5155.67       0.509244E+007  0.242723E+007
  900.838        682052.       0.138510E+011   5153.27       0.508760E+007  0.242152E+007
  932.462        682052.       0.140240E+011   5150.86       0.508274E+007  0.241576E+007
  964.085        682052.       0.141977E+011   5148.43       0.507784E+007  0.240998E+007
  995.708        682052.       0.143723E+011   5145.98       0.507292E+007  0.240416E+007
  1027.33        682052.       0.145476E+011   5143.52       0.506798E+007  0.239831E+007
  1058.95        682052.       0.147234E+011   5141.05       0.506301E+007  0.239243E+007
  1090.58        682052.       0.148999E+011   5138.57       0.505803E+007  0.238653E+007
  1122.20        682052.       0.150769E+011   5136.08       0.505302E+007  0.238060E+007
  1153.82        682052.       0.152543E+011   5133.57       0.504800E+007  0.237465E+007
  1185.45        682052.       0.154322E+011   5131.06       0.504296E+007  0.236868E+007
  1217.07        682052.       0.156105E+011   5128.54       0.503791E+007  0.236269E+007
  1248.69        682052.       0.157892E+011   5126.01       0.503284E+007  0.235668E+007
  1280.32        682052.       0.159682E+011   5123.47       0.502776E+007  0.235065E+007
  1311.94        682052.       0.161475E+011   5120.92       0.502266E+007  0.234461E+007
  1343.56        682052.       0.163271E+011   5118.36       0.501755E+007  0.233854E+007
  1375.18        682052.       0.165069E+011   5115.80       0.501243E+007  0.233247E+007
  1406.81        682052.       0.166870E+011   5113.23       0.500730E+007  0.232637E+007
  1438.43        682052.       0.168673E+011   5110.65       0.500216E+007  0.232027E+007
  1470.05        682052.       0.170477E+011   5108.07       0.499701E+007  0.231414E+007
  1501.68        682052.       0.172284E+011   5105.48       0.499184E+007  0.230801E+007
  1533.30        682052.       0.174092E+011   5102.88       0.498667E+007  0.230186E+007
  300.000        694018.       0.122264E+011   5204.58       0.521012E+007  0.252824E+007
  331.623        694018.       0.123287E+011   5203.19       0.520728E+007  0.252489E+007
  363.246        694018.       0.124412E+011   5201.66       0.520416E+007  0.252121E+007
  394.869        694018.       0.125624E+011   5200.01       0.520080E+007  0.251725E+007
  426.492        694018.       0.126911E+011   5198.25       0.519723E+007  0.251303E+007
  458.115        694018.       0.128262E+011   5196.41       0.519348E+007  0.250861E+007
  489.738        694018.       0.129668E+011   5194.49       0.518957E+007  0.250400E+007
  521.362        694018.       0.131122E+011   5192.50       0.518552E+007  0.249924E+007
  552.985        694018.       0.132616E+011   5190.46       0.518136E+007  0.249433E+007
  584.608        694018.       0.134146E+011   5188.36       0.517710E+007  0.248931E+007
  616.231        694018.       0.135707E+011   5186.22       0.517275E+007  0.248418E+007
  647.854        694018.       0.137295E+011   5184.04       0.516832E+007  0.247896E+007
  679.477        694018.       0.138907E+011   5181.82       0.516382E+007  0.247365E+007
  711.100        694018.       0.140540E+011   5179.57       0.515926E+007  0.246827E+007
  742.723        694018.       0.142191E+011   5177.30       0.515464E+007  0.246282E+007
  774.346        694018.       0.143859E+011   5174.99       0.514998E+007  0.245732E+007
  805.969        694018.       0.145541E+011   5172.67       0.514527E+007  0.245176E+007
  837.592        694018.       0.147237E+011   5170.32       0.514051E+007  0.244615E+007
  869.215        694018.       0.148944E+011   5167.95       0.513573E+007  0.244049E+007
  900.838        694018.       0.150662E+011   5165.57       0.513090E+007  0.243480E+007
  932.462        694018.       0.152389E+011   5163.17       0.512605E+007  0.242907E+007
  964.085        694018.       0.154125E+011   5160.75       0.512117E+007  0.242330E+007
  995.708        694018.       0.155869E+011   5158.32       0.511627E+007  0.241750E+007
  1027.33        694018.       0.157619E+011   5155.88       0.511134E+007  0.241167E+007
  1058.95        694018.       0.159376E+011   5153.42       0.510639E+007  0.240582E+007
  1090.58        694018.       0.161139E+011   5150.96       0.510142E+007  0.239994E+007
  1122.20        694018.       0.162907E+011   5148.48       0.509643E+007  0.239403E+007
  1153.82        694018.       0.164680E+011   5145.99       0.509142E+007  0.238810E+007
  1185.45        694018.       0.166457E+011   5143.49       0.508639E+007  0.238215E+007
  1217.07        694018.       0.168238E+011   5140.99       0.508135E+007  0.237618E+007
  1248.69        694018.       0.170023E+011   5138.47       0.507630E+007  0.237019E+007
  1280.32        694018.       0.171811E+011   5135.95       0.507123E+007  0.236419E+007
  1311.94        694018.       0.173603E+011   5133.41       0.506615E+007  0.235816E+007
  1343.56        694018.       0.175397E+011   5130.87       0.506105E+007  0.235212E+007
  1375.18        694018.       0.177193E+011   5128.33       0.505595E+007  0.234606E+007
  1406.81        694018.       0.178992E+011   5125.77       0.505083E+007  0.233999E+007
  1438.43        694018.       0.180794E+011   5123.21       0.504570E+007  0.233391E+007
  1470.05        694018.       0.182597E+011   5120.64       0.504057E+007  0.232781E+007
  1501.68        694018.       0.184402E+011   5118.07       0.503542E+007  0.232169E+007
  1533.30        694018.       0.186209E+011   5115.49       0.503026E+007  0.231557E+007
  300.000        705983.       0.134496E+011   5216.53       0.525308E+007  0.254105E+007
  331.623        705983.       0.135515E+011   5215.15       0.525026E+007  0.253773E+007
  363.246        705983.       0.136636E+011   5213.64       0.524716E+007  0.253407E+007
  394.869        705983.       0.137845E+011   5212.00       0.524381E+007  0.253013E+007
  426.492        705983.       0.139128E+011   5210.26       0.524025E+007  0.252594E+007
  458.115        705983.       0.140476E+011   5208.43       0.523652E+007  0.252153E+007
  489.738        705983.       0.141879E+011   5206.52       0.523262E+007  0.251695E+007
  521.362        705983.       0.143329E+011   5204.55       0.522859E+007  0.251220E+007
  552.985        705983.       0.144821E+011   5202.52       0.522445E+007  0.250732E+007
  584.608        705983.       0.146348E+011   5200.44       0.522020E+007  0.250232E+007
  616.231        705983.       0.147906E+011   5198.31       0.521587E+007  0.249721E+007
  647.854        705983.       0.149492E+011   5196.14       0.521145E+007  0.249200E+007
  679.477        705983.       0.151101E+011   5193.94       0.520696E+007  0.248672E+007
  711.100        705983.       0.152732E+011   5191.70       0.520242E+007  0.248136E+007
  742.723        705983.       0.154381E+011   5189.44       0.519781E+007  0.247593E+007
  774.346        705983.       0.156046E+011   5187.15       0.519316E+007  0.247045E+007
  805.969        705983.       0.157727E+011   5184.84       0.518847E+007  0.246491E+007
  837.592        705983.       0.159420E+011   5182.51       0.518373E+007  0.245932E+007
  869.215        705983.       0.161125E+011   5180.16       0.517895E+007  0.245368E+007
  900.838        705983.       0.162841E+011   5177.79       0.517415E+007  0.244801E+007
  932.462        705983.       0.164566E+011   5175.40       0.516931E+007  0.244230E+007
  964.085        705983.       0.166300E+011   5173.00       0.516444E+007  0.243655E+007
  995.708        705983.       0.168042E+011   5170.59       0.515955E+007  0.243077E+007
  1027.33        705983.       0.169791E+011   5168.16       0.515464E+007  0.242497E+007
  1058.95        705983.       0.171546E+011   5165.72       0.514970E+007  0.241913E+007
  1090.58        705983.       0.173307E+011   5163.27       0.514474E+007  0.241327E+007
  1122.20        705983.       0.175073E+011   5160.80       0.513976E+007  0.240739E+007
  1153.82        705983.       0.176844E+011   5158.33       0.513477E+007  0.240148E+007
  1185.45        705983.       0.178620E+011   5155.85       0.512976E+007  0.239555E+007
  1217.07        705983.       0.180399E+011   5153.36       0.512473E+007  0.238960E+007
  1248.69        705983.       0.182182E+011   5150.86       0.511969E+007  0.238363E+007
  1280.32        705983.       0.183969E+011   5148.35       0.511464E+007  0.237765E+007
  1311.94        705983.       0.185758E+011   5145.83       0.510957E+007  0.237164E+007
  1343.56        705983.       0.187551E+011   5143.31       0.510448E+007  0.236562E+007
  1375.18        705983.       0.189346E+011   5140.78       0.509940E+007  0.235959E+007
  1406.81        705983.       0.191143E+011   5138.24       0.509429E+007  0.235354E+007
  1438.43        705983.       0.192943E+011   5135.69       0.508918E+007  0.234747E+007
  1470.05        705983.       0.194744E+011   5133.14       0.508406E+007  0.234139E+007
  1501.68        705983.       0.196548E+011   5130.58       0.507892E+007  0.233530E+007
  1533.30        705983.       0.198353E+011   5128.02       0.507378E+007  0.232919E+007
  300.000        717949.       0.146753E+011   5228.42       0.529599E+007  0.255381E+007
  331.623        717949.       0.147769E+011   5227.05       0.529319E+007  0.255050E+007
  363.246        717949.       0.148886E+011   5225.55       0.529010E+007  0.254687E+007
  394.869        717949.       0.150091E+011   5223.92       0.528677E+007  0.254294E+007
  426.492        717949.       0.151371E+011   5222.19       0.528322E+007  0.253877E+007
  458.115        717949.       0.152715E+011   5220.38       0.527950E+007  0.253439E+007
  489.738        717949.       0.154115E+011   5218.48       0.527562E+007  0.252982E+007
  521.362        717949.       0.155563E+011   5216.52       0.527161E+007  0.252510E+007
  552.985        717949.       0.157051E+011   5214.51       0.526748E+007  0.252024E+007
  584.608        717949.       0.158576E+011   5212.44       0.526324E+007  0.251526E+007
  616.231        717949.       0.160132E+011   5210.32       0.525892E+007  0.251017E+007
  647.854        717949.       0.161715E+011   5208.17       0.525452E+007  0.250499E+007
  679.477        717949.       0.163322E+011   5205.98       0.525005E+007  0.249972E+007
  711.100        717949.       0.164950E+011   5203.76       0.524552E+007  0.249438E+007
  742.723        717949.       0.166597E+011   5201.51       0.524093E+007  0.248897E+007
  774.346        717949.       0.168260E+011   5199.24       0.523629E+007  0.248351E+007
  805.969        717949.       0.169938E+011   5196.94       0.523161E+007  0.247799E+007
  837.592        717949.       0.171630E+011   5194.63       0.522688E+007  0.247242E+007
  869.215        717949.       0.173333E+011   5192.29       0.522212E+007  0.246681E+007
  900.838        717949.       0.175047E+011   5189.93       0.521733E+007  0.246115E+007
  932.462        717949.       0.176770E+011   5187.56       0.521250E+007  0.245546E+007
  964.085        717949.       0.178502E+011   5185.18       0.520765E+007  0.244974E+007
  995.708        717949.       0.180242E+011   5182.78       0.520277E+007  0.244398E+007
  1027.33        717949.       0.181989E+011   5180.36       0.519787E+007  0.243819E+007
  1058.95        717949.       0.183742E+011   5177.94       0.519295E+007  0.243238E+007
  1090.58        717949.       0.185502E+011   5175.50       0.518800E+007  0.242653E+007
  1122.20        717949.       0.187266E+011   5173.05       0.518304E+007  0.242067E+007
  1153.82        717949.       0.189035E+011   5170.59       0.517806E+007  0.241478E+007
  1185.45        717949.       0.190809E+011   5168.13       0.517306E+007  0.240887E+007
  1217.07        717949.       0.192587E+011   5165.65       0.516805E+007  0.240295E+007
  1248.69        717949.       0.194368E+011   5163.16       0.516302E+007  0.239700E+007
  1280.32        717949.       0.196153E+011   5160.67       0.515798E+007  0.239103E+007
  1311.94        717949.       0.197941E+011   5158.17       0.515293E+007  0.238505E+007
  1343.56        717949.       0.199732E+011   5155.66       0.514786E+007  0.237905E+007
  1375.18        717949.       0.201526E+011   5153.14       0.514278E+007  0.237304E+007
  1406.81        717949.       0.203321E+011   5150.62       0.513769E+007  0.236701E+007
  1438.43        717949.       0.205119E+011   5148.09       0.513259E+007  0.236096E+007
  1470.05        717949.       0.206919E+011   5145.55       0.512748E+007  0.235490E+007
  1501.68        717949.       0.208721E+011   5143.01       0.512236E+007  0.234883E+007
  1533.30        717949.       0.210525E+011   5140.46       0.511724E+007  0.234275E+007
  300.000        729915.       0.159036E+011   5240.23       0.533884E+007  0.256650E+007
  331.623        729915.       0.160048E+011   5238.88       0.533605E+007  0.256321E+007
  363.246        729915.       0.161162E+011   5237.38       0.533298E+007  0.255960E+007
  394.869        729915.       0.162363E+011   5235.77       0.532966E+007  0.255569E+007
  426.492        729915.       0.163640E+011   5234.06       0.532614E+007  0.255154E+007
  458.115        729915.       0.164981E+011   5232.25       0.532243E+007  0.254718E+007
  489.738        729915.       0.166378E+011   5230.37       0.531856E+007  0.254264E+007
  521.362        729915.       0.167822E+011   5228.43       0.531456E+007  0.253793E+007
  552.985        729915.       0.169308E+011   5226.42       0.531045E+007  0.253309E+007
  584.608        729915.       0.170830E+011   5224.37       0.530623E+007  0.252813E+007
  616.231        729915.       0.172383E+011   5222.27       0.530192E+007  0.252306E+007
  647.854        729915.       0.173964E+011   5220.13       0.529753E+007  0.251790E+007
  679.477        729915.       0.175568E+011   5217.95       0.529308E+007  0.251265E+007
  711.100        729915.       0.177194E+011   5215.75       0.528856E+007  0.250733E+007
  742.723        729915.       0.178839E+011   5213.51       0.528398E+007  0.250195E+007
  774.346        729915.       0.180500E+011   5211.25       0.527936E+007  0.249650E+007
  805.969        729915.       0.182176E+011   5208.97       0.527469E+007  0.249100E+007
  837.592        729915.       0.183866E+011   5206.67       0.526998E+007  0.248545E+007
  869.215        729915.       0.185567E+011   5204.34       0.526523E+007  0.247986E+007
  900.838        729915.       0.187279E+011   5202.00       0.526045E+007  0.247423E+007
  932.462        729915.       0.189000E+011   5199.65       0.525564E+007  0.246856E+007
  964.085        729915.       0.190731E+011   5197.27       0.525080E+007  0.246285E+007
  995.708        729915.       0.192469E+011   5194.89       0.524593E+007  0.245711E+007
  1027.33        729915.       0.194214E+011   5192.49       0.524105E+007  0.245134E+007
  1058.95        729915.       0.195966E+011   5190.08       0.523614E+007  0.244555E+007
  1090.58        729915.       0.197723E+011   5187.66       0.523121E+007  0.243973E+007
  1122.20        729915.       0.199486E+011   5185.22       0.522626E+007  0.243388E+007
  1153.82        729915.       0.201254E+011   5182.78       0.522129E+007  0.242802E+007
  1185.45        729915.       0.203026E+011   5180.33       0.521630E+007  0.242213E+007
  1217.07        729915.       0.204802E+011   5177.86       0.521131E+007  0.241622E+007
  1248.69        729915.       0.206582E+011   5175.39       0.520629E+007  0.241029E+007
  1280.32        729915.       0.208365E+011   5172.92       0.520126E+007  0.240435E+007
  1311.94        729915.       0.210151E+011   5170.43       0.519622E+007  0.239838E+007
  1343.56        729915.       0.211941E+011   5167.93       0.519117E+007  0.239241E+007
  1375.18        729915.       0.213733E+011   5165.43       0.518611E+007  0.238641E+007
  1406.81        729915.       0.215527E+011   5162.93       0.518103E+007  0.238040E+007
  1438.43        729915.       0.217323E+011   5160.41       0.517594E+007  0.237438E+007
  1470.05        729915.       0.219122E+011   5157.89       0.517085E+007  0.236834E+007
  1501.68        729915.       0.220922E+011   5155.36       0.516574E+007  0.236229E+007
  1533.30        729915.       0.222724E+011   5152.83       0.516063E+007  0.235623E+007
  300.000        741881.       0.171345E+011   5251.98       0.538164E+007  0.257913E+007
  331.623        741881.       0.172352E+011   5250.64       0.537887E+007  0.257586E+007
  363.246        741881.       0.173462E+011   5249.15       0.537581E+007  0.257226E+007
  394.869        741881.       0.174660E+011   5247.55       0.537251E+007  0.256838E+007
  426.492        741881.       0.175934E+011   5245.85       0.536899E+007  0.256425E+007
  458.115        741881.       0.177272E+011   5244.06       0.536530E+007  0.255991E+007
  489.738        741881.       0.178665E+011   5242.19       0.536145E+007  0.255539E+007
  521.362        741881.       0.180107E+011   5240.26       0.535747E+007  0.255070E+007
  552.985        741881.       0.181590E+011   5238.27       0.535336E+007  0.254588E+007
  584.608        741881.       0.183109E+011   5236.23       0.534916E+007  0.254094E+007
  616.231        741881.       0.184660E+011   5234.14       0.534486E+007  0.253589E+007
  647.854        741881.       0.186238E+011   5232.02       0.534049E+007  0.253075E+007
  679.477        741881.       0.187840E+011   5229.86       0.533605E+007  0.252552E+007
  711.100        741881.       0.189464E+011   5227.66       0.533154E+007  0.252022E+007
  742.723        741881.       0.191107E+011   5225.44       0.532698E+007  0.251486E+007
  774.346        741881.       0.192766E+011   5223.20       0.532237E+007  0.250943E+007
  805.969        741881.       0.194440E+011   5220.93       0.531771E+007  0.250395E+007
  837.592        741881.       0.196127E+011   5218.64       0.531301E+007  0.249842E+007
  869.215        741881.       0.197827E+011   5216.33       0.530828E+007  0.249285E+007
  900.838        741881.       0.199537E+011   5214.00       0.530351E+007  0.248723E+007
  932.462        741881.       0.201257E+011   5211.66       0.529871E+007  0.248158E+007
  964.085        741881.       0.202985E+011   5209.30       0.529389E+007  0.247590E+007
  995.708        741881.       0.204721E+011   5206.93       0.528904E+007  0.247018E+007
  1027.33        741881.       0.206465E+011   5204.54       0.528416E+007  0.246443E+007
  1058.95        741881.       0.208215E+011   5202.15       0.527926E+007  0.245865E+007
  1090.58        741881.       0.209971E+011   5199.74       0.527435E+007  0.245285E+007
  1122.20        741881.       0.211732E+011   5197.32       0.526941E+007  0.244703E+007
  1153.82        741881.       0.213498E+011   5194.89       0.526446E+007  0.244118E+007
  1185.45        741881.       0.215269E+011   5192.45       0.525949E+007  0.243531E+007
  1217.07        741881.       0.217043E+011   5190.01       0.525450E+007  0.242942E+007
  1248.69        741881.       0.218822E+011   5187.55       0.524950E+007  0.242352E+007
  1280.32        741881.       0.220603E+011   5185.08       0.524448E+007  0.241759E+007
  1311.94        741881.       0.222388E+011   5182.61       0.523946E+007  0.241165E+007
  1343.56        741881.       0.224176E+011   5180.13       0.523442E+007  0.240569E+007
  1375.18        741881.       0.225966E+011   5177.65       0.522937E+007  0.239971E+007
  1406.81        741881.       0.227759E+011   5175.15       0.522430E+007  0.239373E+007
  1438.43        741881.       0.229554E+011   5172.65       0.521923E+007  0.238772E+007
  1470.05        741881.       0.231351E+011   5170.15       0.521415E+007  0.238170E+007
  1501.68        741881.       0.233150E+011   5167.63       0.520905E+007  0.237567E+007
  1533.30        741881.       0.234951E+011   5165.12       0.520395E+007  0.236963E+007
  300.000        753847.       0.183677E+011   5263.66       0.542439E+007  0.259169E+007
  331.623        753847.       0.184682E+011   5262.33       0.542163E+007  0.258845E+007
  363.246        753847.       0.185788E+011   5260.86       0.541858E+007  0.258487E+007
  394.869        753847.       0.186982E+011   5259.27       0.541529E+007  0.258101E+007
  426.492        753847.       0.188252E+011   5257.58       0.541180E+007  0.257690E+007
  458.115        753847.       0.189587E+011   5255.80       0.540812E+007  0.257258E+007
  489.738        753847.       0.190978E+011   5253.95       0.540428E+007  0.256807E+007
  521.362        753847.       0.192417E+011   5252.03       0.540031E+007  0.256341E+007
  552.985        753847.       0.193897E+011   5250.05       0.539622E+007  0.255861E+007
  584.608        753847.       0.195414E+011   5248.02       0.539203E+007  0.255368E+007
  616.231        753847.       0.196962E+011   5245.95       0.538775E+007  0.254866E+007
  647.854        753847.       0.198538E+011   5243.83       0.538339E+007  0.254353E+007
  679.477        753847.       0.200138E+011   5241.69       0.537896E+007  0.253833E+007
  711.100        753847.       0.201760E+011   5239.51       0.537447E+007  0.253305E+007
  742.723        753847.       0.203400E+011   5237.30       0.536992E+007  0.252770E+007
  774.346        753847.       0.205057E+011   5235.07       0.536532E+007  0.252229E+007
  805.969        753847.       0.206729E+011   5232.81       0.536068E+007  0.251683E+007
  837.592        753847.       0.208415E+011   5230.54       0.535599E+007  0.251132E+007
  869.215        753847.       0.210112E+011   5228.24       0.535127E+007  0.250577E+007
  900.838        753847.       0.211821E+011   5225.93       0.534652E+007  0.250017E+007
  932.462        753847.       0.213539E+011   5223.60       0.534173E+007  0.249454E+007
  964.085        753847.       0.215265E+011   5221.25       0.533692E+007  0.248887E+007
  995.708        753847.       0.217000E+011   5218.90       0.533208E+007  0.248317E+007
  1027.33        753847.       0.218742E+011   5216.53       0.532722E+007  0.247745E+007
  1058.95        753847.       0.220490E+011   5214.14       0.532233E+007  0.247169E+007
  1090.58        753847.       0.222244E+011   5211.75       0.531743E+007  0.246591E+007
  1122.20        753847.       0.224004E+011   5209.34       0.531251E+007  0.246010E+007
  1153.82        753847.       0.225768E+011   5206.93       0.530756E+007  0.245428E+007
  1185.45        753847.       0.227537E+011   5204.50       0.530261E+007  0.244843E+007
  1217.07        753847.       0.229311E+011   5202.07       0.529763E+007  0.244256E+007
  1248.69        753847.       0.231087E+011   5199.63       0.529264E+007  0.243667E+007
  1280.32        753847.       0.232868E+011   5197.18       0.528764E+007  0.243076E+007
  1311.94        753847.       0.234651E+011   5194.72       0.528263E+007  0.242484E+007
  1343.56        753847.       0.236437E+011   5192.26       0.527760E+007  0.241890E+007
  1375.18        753847.       0.238226E+011   5189.79       0.527256E+007  0.241295E+007
  1406.81        753847.       0.240018E+011   5187.31       0.526751E+007  0.240698E+007
  1438.43        753847.       0.241811E+011   5184.82       0.526245E+007  0.240099E+007
  1470.05        753847.       0.243607E+011   5182.33       0.525738E+007  0.239500E+007
  1501.68        753847.       0.245405E+011   5179.83       0.525231E+007  0.238899E+007
  1533.30        753847.       0.247204E+011   5177.33       0.524722E+007  0.238296E+007
  300.000        765813.       0.196035E+011   5275.27       0.546708E+007  0.260420E+007
  331.623        765813.       0.197035E+011   5273.95       0.546433E+007  0.260097E+007
  363.246        765813.       0.198138E+011   5272.49       0.546130E+007  0.259741E+007
  394.869        765813.       0.199329E+011   5270.92       0.545803E+007  0.259357E+007
  426.492        765813.       0.200596E+011   5269.24       0.545455E+007  0.258948E+007
  458.115        765813.       0.201928E+011   5267.47       0.545088E+007  0.258518E+007
  489.738        765813.       0.203315E+011   5265.63       0.544706E+007  0.258069E+007
  521.362        765813.       0.204751E+011   5263.72       0.544310E+007  0.257605E+007
  552.985        765813.       0.206229E+011   5261.76       0.543903E+007  0.257127E+007
  584.608        765813.       0.207743E+011   5259.74       0.543485E+007  0.256637E+007
  616.231        765813.       0.209289E+011   5257.68       0.543058E+007  0.256136E+007
  647.854        765813.       0.210863E+011   5255.58       0.542624E+007  0.255625E+007
  679.477        765813.       0.212461E+011   5253.45       0.542182E+007  0.255107E+007
  711.100        765813.       0.214080E+011   5251.28       0.541734E+007  0.254581E+007
  742.723        765813.       0.215718E+011   5249.09       0.541280E+007  0.254048E+007
  774.346        765813.       0.217373E+011   5246.87       0.540822E+007  0.253509E+007
  805.969        765813.       0.219044E+011   5244.63       0.540359E+007  0.252965E+007
  837.592        765813.       0.220727E+011   5242.36       0.539892E+007  0.252416E+007
  869.215        765813.       0.222423E+011   5240.08       0.539421E+007  0.251862E+007
  900.838        765813.       0.224130E+011   5237.78       0.538947E+007  0.251305E+007
  932.462        765813.       0.225846E+011   5235.47       0.538469E+007  0.250743E+007
  964.085        765813.       0.227571E+011   5233.14       0.537989E+007  0.250179E+007
  995.708        765813.       0.229304E+011   5230.79       0.537507E+007  0.249611E+007
  1027.33        765813.       0.231044E+011   5228.44       0.537022E+007  0.249040E+007
  1058.95        765813.       0.232791E+011   5226.07       0.536535E+007  0.248466E+007
  1090.58        765813.       0.234543E+011   5223.69       0.536045E+007  0.247890E+007
  1122.20        765813.       0.236301E+011   5221.29       0.535554E+007  0.247311E+007
  1153.82        765813.       0.238065E+011   5218.89       0.535061E+007  0.246730E+007
  1185.45        765813.       0.239832E+011   5216.48       0.534567E+007  0.246147E+007
  1217.07        765813.       0.241604E+011   5214.06       0.534071E+007  0.245562E+007
  1248.69        765813.       0.243379E+011   5211.64       0.533573E+007  0.244975E+007
  1280.32        765813.       0.245158E+011   5209.20       0.533074E+007  0.244387E+007
  1311.94        765813.       0.246940E+011   5206.76       0.532574E+007  0.243796E+007
  1343.56        765813.       0.248725E+011   5204.31       0.532073E+007  0.243204E+007
  1375.18        765813.       0.250512E+011   5201.85       0.531570E+007  0.242611E+007
  1406.81        765813.       0.252302E+011   5199.38       0.531067E+007  0.242016E+007
  1438.43        765813.       0.254095E+011   5196.91       0.530562E+007  0.241419E+007
  1470.05        765813.       0.255889E+011   5194.44       0.530056E+007  0.240822E+007
  1501.68        765813.       0.257685E+011   5191.95       0.529549E+007  0.240223E+007
  1533.30        765813.       0.259483E+011   5189.46       0.529042E+007  0.239622E+007
  300.000        777778.       0.208416E+011   5286.82       0.550972E+007  0.261665E+007
  331.623        777778.       0.209413E+011   5285.51       0.550699E+007  0.261344E+007
  363.246        777778.       0.210512E+011   5284.06       0.550397E+007  0.260990E+007
  394.869        777778.       0.211700E+011   5282.50       0.550071E+007  0.260607E+007
  426.492        777778.       0.212964E+011   5280.83       0.549724E+007  0.260200E+007
  458.115        777778.       0.214292E+011   5279.08       0.549359E+007  0.259772E+007
  489.738        777778.       0.215677E+011   5277.25       0.548978E+007  0.259326E+007
  521.362        777778.       0.217111E+011   5275.35       0.548584E+007  0.258863E+007
  552.985        777778.       0.218586E+011   5273.40       0.548178E+007  0.258387E+007
  584.608        777778.       0.220097E+011   5271.40       0.547762E+007  0.257899E+007
  616.231        777778.       0.221641E+011   5269.35       0.547336E+007  0.257400E+007
  647.854        777778.       0.223212E+011   5267.26       0.546903E+007  0.256891E+007
  679.477        777778.       0.224808E+011   5265.14       0.546462E+007  0.256374E+007
  711.100        777778.       0.226425E+011   5262.99       0.546016E+007  0.255850E+007
  742.723        777778.       0.228061E+011   5260.81       0.545563E+007  0.255319E+007
  774.346        777778.       0.229714E+011   5258.60       0.545106E+007  0.254782E+007
  805.969        777778.       0.231383E+011   5256.37       0.544644E+007  0.254240E+007
  837.592        777778.       0.233065E+011   5254.12       0.544178E+007  0.253693E+007
  869.215        777778.       0.234759E+011   5251.86       0.543709E+007  0.253141E+007
  900.838        777778.       0.236463E+011   5249.57       0.543236E+007  0.252586E+007
  932.462        777778.       0.238178E+011   5247.27       0.542760E+007  0.252026E+007
  964.085        777778.       0.239901E+011   5244.95       0.542281E+007  0.251463E+007
  995.708        777778.       0.241633E+011   5242.62       0.541800E+007  0.250897E+007
  1027.33        777778.       0.243371E+011   5240.28       0.541316E+007  0.250328E+007
  1058.95        777778.       0.245117E+011   5237.92       0.540830E+007  0.249756E+007
  1090.58        777778.       0.246868E+011   5235.55       0.540342E+007  0.249182E+007
  1122.20        777778.       0.248624E+011   5233.18       0.539852E+007  0.248605E+007
  1153.82        777778.       0.250386E+011   5230.79       0.539361E+007  0.248026E+007
  1185.45        777778.       0.252152E+011   5228.39       0.538867E+007  0.247445E+007
  1217.07        777778.       0.253922E+011   5225.99       0.538372E+007  0.246862E+007
  1248.69        777778.       0.255696E+011   5223.57       0.537876E+007  0.246277E+007
  1280.32        777778.       0.257474E+011   5221.15       0.537378E+007  0.245690E+007
  1311.94        777778.       0.259254E+011   5218.72       0.536879E+007  0.245102E+007
  1343.56        777778.       0.261038E+011   5216.28       0.536379E+007  0.244512E+007
  1375.18        777778.       0.262824E+011   5213.84       0.535878E+007  0.243920E+007
  1406.81        777778.       0.264613E+011   5211.39       0.535376E+007  0.243327E+007
  1438.43        777778.       0.266404E+011   5208.93       0.534872E+007  0.242733E+007
  1470.05        777778.       0.268196E+011   5206.47       0.534368E+007  0.242137E+007
  1501.68        777778.       0.269991E+011   5204.00       0.533862E+007  0.241540E+007
  1533.30        777778.       0.271788E+011   5201.53       0.533356E+007  0.240941E+007
  300.000        789744.       0.220821E+011   5298.30       0.555231E+007  0.262903E+007
  331.623        789744.       0.221814E+011   5297.00       0.554959E+007  0.262584E+007
  363.246        789744.       0.222910E+011   5295.57       0.554659E+007  0.262232E+007
  394.869        789744.       0.224095E+011   5294.01       0.554334E+007  0.261852E+007
  426.492        789744.       0.225355E+011   5292.36       0.553989E+007  0.261446E+007
  458.115        789744.       0.226681E+011   5290.62       0.553625E+007  0.261020E+007
  489.738        789744.       0.228063E+011   5288.80       0.553246E+007  0.260576E+007
  521.362        789744.       0.229494E+011   5286.92       0.552853E+007  0.260115E+007
  552.985        789744.       0.230966E+011   5284.98       0.552448E+007  0.259641E+007
  584.608        789744.       0.232475E+011   5282.99       0.552033E+007  0.259154E+007
  616.231        789744.       0.234017E+011   5280.95       0.551609E+007  0.258657E+007
  647.854        789744.       0.235586E+011   5278.88       0.551176E+007  0.258151E+007
  679.477        789744.       0.237179E+011   5276.77       0.550737E+007  0.257636E+007
  711.100        789744.       0.238794E+011   5274.63       0.550292E+007  0.257113E+007
  742.723        789744.       0.240429E+011   5272.46       0.549841E+007  0.256584E+007
  774.346        789744.       0.242080E+011   5270.27       0.549385E+007  0.256049E+007
  805.969        789744.       0.243746E+011   5268.05       0.548924E+007  0.255509E+007
  837.592        789744.       0.245427E+011   5265.82       0.548460E+007  0.254964E+007
  869.215        789744.       0.247119E+011   5263.56       0.547991E+007  0.254414E+007
  900.838        789744.       0.248822E+011   5261.29       0.547520E+007  0.253860E+007
  932.462        789744.       0.250535E+011   5259.00       0.547045E+007  0.253302E+007
  964.085        789744.       0.252257E+011   5256.69       0.546567E+007  0.252741E+007
  995.708        789744.       0.253986E+011   5254.38       0.546087E+007  0.252177E+007
  1027.33        789744.       0.255723E+011   5252.05       0.545605E+007  0.251610E+007
  1058.95        789744.       0.257467E+011   5249.70       0.545120E+007  0.251040E+007
  1090.58        789744.       0.259217E+011   5247.35       0.544633E+007  0.250467E+007
  1122.20        789744.       0.260972E+011   5244.99       0.544144E+007  0.249893E+007
  1153.82        789744.       0.262732E+011   5242.61       0.543654E+007  0.249315E+007
  1185.45        789744.       0.264497E+011   5240.23       0.543162E+007  0.248736E+007
  1217.07        789744.       0.266266E+011   5237.84       0.542668E+007  0.248155E+007
  1248.69        789744.       0.268038E+011   5235.44       0.542173E+007  0.247572E+007
  1280.32        789744.       0.269814E+011   5233.03       0.541677E+007  0.246987E+007
  1311.94        789744.       0.271594E+011   5230.61       0.541179E+007  0.246400E+007
  1343.56        789744.       0.273376E+011   5228.19       0.540680E+007  0.245812E+007
  1375.18        789744.       0.275161E+011   5225.76       0.540180E+007  0.245223E+007
  1406.81        789744.       0.276948E+011   5223.32       0.539679E+007  0.244631E+007
  1438.43        789744.       0.278738E+011   5220.88       0.539177E+007  0.244039E+007
  1470.05        789744.       0.280529E+011   5218.43       0.538673E+007  0.243445E+007
  1501.68        789744.       0.282323E+011   5215.98       0.538169E+007  0.242850E+007
  1533.30        789744.       0.284118E+011   5213.51       0.537664E+007  0.242253E+007
  300.000        801710.       0.233249E+011   5309.72       0.559485E+007  0.264136E+007
  331.623        801710.       0.234239E+011   5308.43       0.559214E+007  0.263819E+007
  363.246        801710.       0.235332E+011   5307.01       0.558915E+007  0.263468E+007
  394.869        801710.       0.236513E+011   5305.47       0.558592E+007  0.263090E+007
  426.492        801710.       0.237770E+011   5303.82       0.558248E+007  0.262687E+007
  458.115        801710.       0.239093E+011   5302.09       0.557886E+007  0.262262E+007
  489.738        801710.       0.240473E+011   5300.29       0.557508E+007  0.261820E+007
  521.362        801710.       0.241900E+011   5298.42       0.557116E+007  0.261361E+007
  552.985        801710.       0.243371E+011   5296.49       0.556712E+007  0.260889E+007
  584.608        801710.       0.244877E+011   5294.51       0.556299E+007  0.260404E+007
  616.231        801710.       0.246416E+011   5292.49       0.555876E+007  0.259909E+007
  647.854        801710.       0.247983E+011   5290.43       0.555445E+007  0.259404E+007
  679.477        801710.       0.249574E+011   5288.33       0.555007E+007  0.258891E+007
  711.100        801710.       0.251188E+011   5286.20       0.554563E+007  0.258370E+007
  742.723        801710.       0.252820E+011   5284.05       0.554113E+007  0.257843E+007
  774.346        801710.       0.254469E+011   5281.87       0.553658E+007  0.257310E+007
  805.969        801710.       0.256134E+011   5279.67       0.553199E+007  0.256772E+007
  837.592        801710.       0.257813E+011   5277.44       0.552735E+007  0.256228E+007
  869.215        801710.       0.259503E+011   5275.20       0.552268E+007  0.255680E+007
  900.838        801710.       0.261205E+011   5272.94       0.551798E+007  0.255128E+007
  932.462        801710.       0.262916E+011   5270.66       0.551324E+007  0.254572E+007
  964.085        801710.       0.264636E+011   5268.37       0.550848E+007  0.254013E+007
  995.708        801710.       0.266364E+011   5266.07       0.550369E+007  0.253451E+007
  1027.33        801710.       0.268100E+011   5263.75       0.549888E+007  0.252885E+007
  1058.95        801710.       0.269842E+011   5261.42       0.549404E+007  0.252317E+007
  1090.58        801710.       0.271590E+011   5259.08       0.548919E+007  0.251746E+007
  1122.20        801710.       0.273344E+011   5256.73       0.548431E+007  0.251173E+007
  1153.82        801710.       0.275103E+011   5254.37       0.547942E+007  0.250598E+007
  1185.45        801710.       0.276866E+011   5252.00       0.547451E+007  0.250021E+007
  1217.07        801710.       0.278634E+011   5249.62       0.546959E+007  0.249441E+007
  1248.69        801710.       0.280405E+011   5247.23       0.546465E+007  0.248860E+007
  1280.32        801710.       0.282180E+011   5244.84       0.545969E+007  0.248277E+007
  1311.94        801710.       0.283958E+011   5242.44       0.545473E+007  0.247692E+007
  1343.56        801710.       0.285739E+011   5240.03       0.544975E+007  0.247106E+007
  1375.18        801710.       0.287522E+011   5237.61       0.544476E+007  0.246518E+007
  1406.81        801710.       0.289308E+011   5235.19       0.543976E+007  0.245929E+007
  1438.43        801710.       0.291097E+011   5232.76       0.543475E+007  0.245338E+007
  1470.05        801710.       0.292887E+011   5230.32       0.542973E+007  0.244746E+007
  1501.68        801710.       0.294680E+011   5227.88       0.542470E+007  0.244153E+007
  1533.30        801710.       0.296474E+011   5225.43       0.541967E+007  0.243558E+007
  300.000        813676.       0.245701E+011   5321.08       0.563734E+007  0.265363E+007
  331.623        813676.       0.246688E+011   5319.80       0.563464E+007  0.265047E+007
  363.246        813676.       0.247777E+011   5318.38       0.563167E+007  0.264699E+007
  394.869        813676.       0.248955E+011   5316.85       0.562845E+007  0.264322E+007
  426.492        813676.       0.250209E+011   5315.22       0.562502E+007  0.263921E+007
  458.115        813676.       0.251529E+011   5313.51       0.562141E+007  0.263499E+007
  489.738        813676.       0.252905E+011   5311.71       0.561764E+007  0.263058E+007
  521.362        813676.       0.254331E+011   5309.85       0.561374E+007  0.262601E+007
  552.985        813676.       0.255798E+011   5307.94       0.560972E+007  0.262130E+007
  584.608        813676.       0.257303E+011   5305.97       0.560559E+007  0.261648E+007
  616.231        813676.       0.258839E+011   5303.96       0.560138E+007  0.261154E+007
  647.854        813676.       0.260404E+011   5301.91       0.559708E+007  0.260651E+007
  679.477        813676.       0.261993E+011   5299.83       0.559272E+007  0.260140E+007
  711.100        813676.       0.263605E+011   5297.71       0.558829E+007  0.259621E+007
  742.723        813676.       0.265235E+011   5295.57       0.558380E+007  0.259096E+007
  774.346        813676.       0.266883E+011   5293.40       0.557926E+007  0.258565E+007
  805.969        813676.       0.268546E+011   5291.21       0.557468E+007  0.258028E+007
  837.592        813676.       0.270222E+011   5289.00       0.557006E+007  0.257486E+007
  869.215        813676.       0.271911E+011   5286.77       0.556540E+007  0.256940E+007
  900.838        813676.       0.273611E+011   5284.52       0.556071E+007  0.256390E+007
  932.462        813676.       0.275321E+011   5282.26       0.555598E+007  0.255836E+007
  964.085        813676.       0.277040E+011   5279.98       0.555123E+007  0.255278E+007
  995.708        813676.       0.278766E+011   5277.69       0.554645E+007  0.254718E+007
  1027.33        813676.       0.280501E+011   5275.38       0.554165E+007  0.254154E+007
  1058.95        813676.       0.282241E+011   5273.07       0.553683E+007  0.253588E+007
  1090.58        813676.       0.283988E+011   5270.74       0.553199E+007  0.253019E+007
  1122.20        813676.       0.285741E+011   5268.40       0.552712E+007  0.252448E+007
  1153.82        813676.       0.287498E+011   5266.06       0.552224E+007  0.251874E+007
  1185.45        813676.       0.289260E+011   5263.70       0.551734E+007  0.251299E+007
  1217.07        813676.       0.291026E+011   5261.33       0.551243E+007  0.250721E+007
  1248.69        813676.       0.292796E+011   5258.96       0.550751E+007  0.250142E+007
  1280.32        813676.       0.294570E+011   5256.58       0.550256E+007  0.249561E+007
  1311.94        813676.       0.296346E+011   5254.19       0.549761E+007  0.248978E+007
  1343.56        813676.       0.298126E+011   5251.79       0.549265E+007  0.248393E+007
  1375.18        813676.       0.299909E+011   5249.39       0.548767E+007  0.247807E+007
  1406.81        813676.       0.301693E+011   5246.98       0.548268E+007  0.247220E+007
  1438.43        813676.       0.303481E+011   5244.56       0.547768E+007  0.246631E+007
  1470.05        813676.       0.305270E+011   5242.14       0.547267E+007  0.246041E+007
  1501.68        813676.       0.307061E+011   5239.71       0.546766E+007  0.245449E+007
  1533.30        813676.       0.308854E+011   5237.28       0.546263E+007  0.244857E+007
  300.000        825642.       0.258175E+011   5332.37       0.567978E+007  0.266584E+007
  331.623        825642.       0.259159E+011   5331.10       0.567710E+007  0.266270E+007
  363.246        825642.       0.260245E+011   5329.70       0.567414E+007  0.265924E+007
  394.869        825642.       0.261419E+011   5328.18       0.567093E+007  0.265549E+007
  426.492        825642.       0.262671E+011   5326.56       0.566752E+007  0.265149E+007
  458.115        825642.       0.263988E+011   5324.86       0.566392E+007  0.264729E+007
  489.738        825642.       0.265361E+011   5323.07       0.566016E+007  0.264290E+007
  521.362        825642.       0.266784E+011   5321.23       0.565627E+007  0.263835E+007
  552.985        825642.       0.268249E+011   5319.32       0.565226E+007  0.263366E+007
  584.608        825642.       0.269751E+011   5317.37       0.564815E+007  0.262885E+007
  616.231        825642.       0.271286E+011   5315.37       0.564395E+007  0.262394E+007
  647.854        825642.       0.272848E+011   5313.33       0.563966E+007  0.261893E+007
  679.477        825642.       0.274436E+011   5311.26       0.563531E+007  0.261383E+007
  711.100        825642.       0.276045E+011   5309.16       0.563089E+007  0.260866E+007
  742.723        825642.       0.277674E+011   5307.03       0.562642E+007  0.260343E+007
  774.346        825642.       0.279320E+011   5304.87       0.562189E+007  0.259813E+007
  805.969        825642.       0.280981E+011   5302.69       0.561732E+007  0.259278E+007
  837.592        825642.       0.282656E+011   5300.49       0.561271E+007  0.258738E+007
  869.215        825642.       0.284343E+011   5298.28       0.560807E+007  0.258194E+007
  900.838        825642.       0.286041E+011   5296.04       0.560339E+007  0.257646E+007
  932.462        825642.       0.287750E+011   5293.79       0.559867E+007  0.257093E+007
  964.085        825642.       0.289467E+011   5291.53       0.559393E+007  0.256538E+007
  995.708        825642.       0.291192E+011   5289.25       0.558917E+007  0.255979E+007
  1027.33        825642.       0.292925E+011   5286.95       0.558438E+007  0.255417E+007
  1058.95        825642.       0.294664E+011   5284.65       0.557956E+007  0.254853E+007
  1090.58        825642.       0.296410E+011   5282.34       0.557473E+007  0.254285E+007
  1122.20        825642.       0.298161E+011   5280.01       0.556988E+007  0.253716E+007
  1153.82        825642.       0.299917E+011   5277.68       0.556501E+007  0.253144E+007
  1185.45        825642.       0.301678E+011   5275.33       0.556013E+007  0.252571E+007
  1217.07        825642.       0.303442E+011   5272.98       0.555522E+007  0.251995E+007
  1248.69        825642.       0.305211E+011   5270.62       0.555031E+007  0.251417E+007
  1280.32        825642.       0.306984E+011   5268.25       0.554538E+007  0.250838E+007
  1311.94        825642.       0.308759E+011   5265.87       0.554044E+007  0.250257E+007
  1343.56        825642.       0.310538E+011   5263.49       0.553548E+007  0.249674E+007
  1375.18        825642.       0.312319E+011   5261.10       0.553052E+007  0.249090E+007
  1406.81        825642.       0.314103E+011   5258.70       0.552554E+007  0.248504E+007
  1438.43        825642.       0.315889E+011   5256.30       0.552056E+007  0.247917E+007
  1470.05        825642.       0.317677E+011   5253.89       0.551556E+007  0.247329E+007
  1501.68        825642.       0.319467E+011   5251.48       0.551055E+007  0.246739E+007
  1533.30        825642.       0.321259E+011   5249.06       0.550554E+007  0.246148E+007
  300.000        837607.       0.270672E+011   5343.61       0.572217E+007  0.267800E+007
  331.623        837607.       0.271652E+011   5342.35       0.571950E+007  0.267488E+007
  363.246        837607.       0.272735E+011   5340.96       0.571655E+007  0.267143E+007
  394.869        837607.       0.273907E+011   5339.45       0.571336E+007  0.266770E+007
  426.492        837607.       0.275155E+011   5337.84       0.570996E+007  0.266372E+007
  458.115        837607.       0.276469E+011   5336.14       0.570637E+007  0.265953E+007
  489.738        837607.       0.277840E+011   5334.37       0.570263E+007  0.265516E+007
  521.362        837607.       0.279260E+011   5332.54       0.569876E+007  0.265063E+007
  552.985        837607.       0.280723E+011   5330.65       0.569476E+007  0.264596E+007
  584.608        837607.       0.282223E+011   5328.70       0.569066E+007  0.264117E+007
  616.231        837607.       0.283755E+011   5326.72       0.568647E+007  0.263627E+007
  647.854        837607.       0.285316E+011   5324.69       0.568220E+007  0.263128E+007
  679.477        837607.       0.286901E+011   5322.63       0.567785E+007  0.262620E+007
  711.100        837607.       0.288508E+011   5320.54       0.567345E+007  0.262105E+007
  742.723        837607.       0.290135E+011   5318.42       0.566899E+007  0.261584E+007
  774.346        837607.       0.291779E+011   5316.28       0.566447E+007  0.261056E+007
  805.969        837607.       0.293439E+011   5314.11       0.565992E+007  0.260523E+007
  837.592        837607.       0.295112E+011   5311.93       0.565532E+007  0.259984E+007
  869.215        837607.       0.296798E+011   5309.72       0.565068E+007  0.259442E+007
  900.838        837607.       0.298495E+011   5307.50       0.564601E+007  0.258895E+007
  932.462        837607.       0.300201E+011   5305.26       0.564131E+007  0.258345E+007
  964.085        837607.       0.301917E+011   5303.01       0.563658E+007  0.257791E+007
  995.708        837607.       0.303641E+011   5300.74       0.563183E+007  0.257234E+007
  1027.33        837607.       0.305373E+011   5298.46       0.562705E+007  0.256674E+007
  1058.95        837607.       0.307111E+011   5296.17       0.562225E+007  0.256111E+007
  1090.58        837607.       0.308855E+011   5293.87       0.561742E+007  0.255546E+007
  1122.20        837607.       0.310605E+011   5291.55       0.561258E+007  0.254978E+007
  1153.82        837607.       0.312359E+011   5289.23       0.560773E+007  0.254408E+007
  1185.45        837607.       0.314119E+011   5286.90       0.560285E+007  0.253836E+007
  1217.07        837607.       0.315883E+011   5284.56       0.559796E+007  0.253262E+007
  1248.69        837607.       0.317650E+011   5282.21       0.559306E+007  0.252686E+007
  1280.32        837607.       0.319421E+011   5279.86       0.558814E+007  0.252108E+007
  1311.94        837607.       0.321196E+011   5277.49       0.558321E+007  0.251529E+007
  1343.56        837607.       0.322973E+011   5275.12       0.557827E+007  0.250948E+007
  1375.18        837607.       0.324753E+011   5272.74       0.557331E+007  0.250366E+007
  1406.81        837607.       0.326536E+011   5270.36       0.556835E+007  0.249782E+007
  1438.43        837607.       0.328321E+011   5267.97       0.556337E+007  0.249197E+007
  1470.05        837607.       0.330108E+011   5265.57       0.555839E+007  0.248610E+007
  1501.68        837607.       0.331897E+011   5263.17       0.555339E+007  0.248022E+007
  1533.30        837607.       0.333687E+011   5260.77       0.554839E+007  0.247433E+007
  300.000        849573.       0.283192E+011   5354.78       0.576451E+007  0.269009E+007
  331.623        849573.       0.284168E+011   5353.53       0.576186E+007  0.268699E+007
  363.246        849573.       0.285248E+011   5352.15       0.575892E+007  0.268356E+007
  394.869        849573.       0.286416E+011   5350.65       0.575574E+007  0.267985E+007
  426.492        849573.       0.287662E+011   5349.06       0.575235E+007  0.267589E+007
  458.115        849573.       0.288973E+011   5347.37       0.574878E+007  0.267172E+007
  489.738        849573.       0.290342E+011   5345.61       0.574505E+007  0.266737E+007
  521.362        849573.       0.291759E+011   5343.79       0.574119E+007  0.266286E+007
  552.985        849573.       0.293220E+011   5341.91       0.573720E+007  0.265820E+007
  584.608        849573.       0.294717E+011   5339.98       0.573312E+007  0.265343E+007
  616.231        849573.       0.296247E+011   5338.00       0.572894E+007  0.264855E+007
  647.854        849573.       0.297806E+011   5335.99       0.572468E+007  0.264358E+007
  679.477        849573.       0.299389E+011   5333.94       0.572035E+007  0.263852E+007
  711.100        849573.       0.300995E+011   5331.86       0.571595E+007  0.263338E+007
  742.723        849573.       0.302620E+011   5329.75       0.571150E+007  0.262818E+007
  774.346        849573.       0.304262E+011   5327.62       0.570700E+007  0.262292E+007
  805.969        849573.       0.305920E+011   5325.47       0.570245E+007  0.261761E+007
  837.592        849573.       0.307592E+011   5323.29       0.569787E+007  0.261224E+007
  869.215        849573.       0.309276E+011   5321.10       0.569324E+007  0.260684E+007
  900.838        849573.       0.310971E+011   5318.89       0.568858E+007  0.260139E+007
  932.462        849573.       0.312676E+011   5316.66       0.568389E+007  0.259590E+007
  964.085        849573.       0.314391E+011   5314.42       0.567918E+007  0.259038E+007
  995.708        849573.       0.316113E+011   5312.17       0.567443E+007  0.258482E+007
  1027.33        849573.       0.317843E+011   5309.90       0.566967E+007  0.257924E+007
  1058.95        849573.       0.319580E+011   5307.62       0.566488E+007  0.257363E+007
  1090.58        849573.       0.321323E+011   5305.33       0.566007E+007  0.256799E+007
  1122.20        849573.       0.323072E+011   5303.03       0.565524E+007  0.256233E+007
  1153.82        849573.       0.324825E+011   5300.72       0.565039E+007  0.255665E+007
  1185.45        849573.       0.326583E+011   5298.40       0.564553E+007  0.255095E+007
  1217.07        849573.       0.328346E+011   5296.07       0.564065E+007  0.254523E+007
  1248.69        849573.       0.330112E+011   5293.74       0.563576E+007  0.253949E+007
  1280.32        849573.       0.331882E+011   5291.40       0.563085E+007  0.253373E+007
  1311.94        849573.       0.333656E+011   5289.05       0.562593E+007  0.252795E+007
  1343.56        849573.       0.335432E+011   5286.69       0.562100E+007  0.252216E+007
  1375.18        849573.       0.337211E+011   5284.32       0.561605E+007  0.251635E+007
  1406.81        849573.       0.338992E+011   5281.95       0.561110E+007  0.251053E+007
  1438.43        849573.       0.340776E+011   5279.57       0.560614E+007  0.250470E+007
  1470.05        849573.       0.342562E+011   5277.19       0.560116E+007  0.249885E+007
  1501.68        849573.       0.344350E+011   5274.80       0.559618E+007  0.249299E+007
  1533.30        849573.       0.346140E+011   5272.41       0.559119E+007  0.248712E+007
  300.000        861539.       0.295733E+011   5365.90       0.580681E+007  0.270214E+007
  331.623        861539.       0.296706E+011   5364.66       0.580417E+007  0.269905E+007
  363.246        861539.       0.297783E+011   5363.29       0.580124E+007  0.269564E+007
  394.869        861539.       0.298948E+011   5361.80       0.579808E+007  0.269195E+007
  426.492        861539.       0.300191E+011   5360.21       0.579470E+007  0.268801E+007
  458.115        861539.       0.301499E+011   5358.54       0.579114E+007  0.268385E+007
  489.738        861539.       0.302865E+011   5356.79       0.578743E+007  0.267952E+007
  521.362        861539.       0.304280E+011   5354.98       0.578357E+007  0.267502E+007
  552.985        861539.       0.305738E+011   5353.11       0.577960E+007  0.267039E+007
  584.608        861539.       0.307234E+011   5351.19       0.577553E+007  0.266563E+007
  616.231        861539.       0.308762E+011   5349.23       0.577136E+007  0.266077E+007
  647.854        861539.       0.310318E+011   5347.22       0.576711E+007  0.265581E+007
  679.477        861539.       0.311900E+011   5345.19       0.576279E+007  0.265077E+007
  711.100        861539.       0.313503E+011   5343.12       0.575841E+007  0.264566E+007
  742.723        861539.       0.315127E+011   5341.03       0.575397E+007  0.264047E+007
  774.346        861539.       0.316767E+011   5338.91       0.574948E+007  0.263523E+007
  805.969        861539.       0.318424E+011   5336.76       0.574494E+007  0.262993E+007
  837.592        861539.       0.320094E+011   5334.60       0.574037E+007  0.262459E+007
  869.215        861539.       0.321776E+011   5332.42       0.573575E+007  0.261919E+007
  900.838        861539.       0.323470E+011   5330.22       0.573111E+007  0.261376E+007
  932.462        861539.       0.325174E+011   5328.00       0.572643E+007  0.260829E+007
  964.085        861539.       0.326887E+011   5325.78       0.572172E+007  0.260279E+007
  995.708        861539.       0.328608E+011   5323.53       0.571699E+007  0.259725E+007
  1027.33        861539.       0.330337E+011   5321.28       0.571223E+007  0.259168E+007
  1058.95        861539.       0.332073E+011   5319.01       0.570745E+007  0.258609E+007
  1090.58        861539.       0.333814E+011   5316.73       0.570265E+007  0.258047E+007
  1122.20        861539.       0.335562E+011   5314.45       0.569784E+007  0.257483E+007
  1153.82        861539.       0.337314E+011   5312.15       0.569300E+007  0.256917E+007
  1185.45        861539.       0.339071E+011   5309.84       0.568815E+007  0.256348E+007
  1217.07        861539.       0.340832E+011   5307.53       0.568328E+007  0.255777E+007
  1248.69        861539.       0.342598E+011   5305.20       0.567840E+007  0.255205E+007
  1280.32        861539.       0.344367E+011   5302.87       0.567350E+007  0.254631E+007
  1311.94        861539.       0.346139E+011   5300.53       0.566859E+007  0.254055E+007
  1343.56        861539.       0.347914E+011   5298.19       0.566367E+007  0.253478E+007
  1375.18        861539.       0.349692E+011   5295.84       0.565874E+007  0.252899E+007
  1406.81        861539.       0.351472E+011   5293.48       0.565380E+007  0.252318E+007
  1438.43        861539.       0.353255E+011   5291.11       0.564885E+007  0.251737E+007
  1470.05        861539.       0.355040E+011   5288.74       0.564388E+007  0.251154E+007
  1501.68        861539.       0.356827E+011   5286.36       0.563891E+007  0.250569E+007
  1533.30        861539.       0.358615E+011   5283.98       0.563393E+007  0.249984E+007
  300.000        873505.       0.308296E+011   5376.96       0.584906E+007  0.271413E+007
  331.623        873505.       0.309266E+011   5375.73       0.584643E+007  0.271106E+007
  363.246        873505.       0.310339E+011   5374.36       0.584352E+007  0.270766E+007
  394.869        873505.       0.311502E+011   5372.89       0.584037E+007  0.270399E+007
  426.492        873505.       0.312741E+011   5371.31       0.583700E+007  0.270006E+007
  458.115        873505.       0.314047E+011   5369.65       0.583346E+007  0.269593E+007
  489.738        873505.       0.315410E+011   5367.91       0.582975E+007  0.269161E+007
  521.362        873505.       0.316823E+011   5366.11       0.582591E+007  0.268713E+007
  552.985        873505.       0.318279E+011   5364.25       0.582195E+007  0.268252E+007
  584.608        873505.       0.319772E+011   5362.34       0.581789E+007  0.267778E+007
  616.231        873505.       0.321298E+011   5360.39       0.581373E+007  0.267293E+007
  647.854        873505.       0.322853E+011   5358.40       0.580949E+007  0.266799E+007
  679.477        873505.       0.324432E+011   5356.37       0.580519E+007  0.266297E+007
  711.100        873505.       0.326034E+011   5354.32       0.580082E+007  0.265787E+007
  742.723        873505.       0.327656E+011   5352.24       0.579639E+007  0.265270E+007
  774.346        873505.       0.329295E+011   5350.13       0.579191E+007  0.264748E+007
  805.969        873505.       0.330950E+011   5348.00       0.578739E+007  0.264220E+007
  837.592        873505.       0.332618E+011   5345.84       0.578282E+007  0.263687E+007
  869.215        873505.       0.334299E+011   5343.67       0.577822E+007  0.263149E+007
  900.838        873505.       0.335992E+011   5341.49       0.577358E+007  0.262608E+007
  932.462        873505.       0.337694E+011   5339.28       0.576891E+007  0.262062E+007
  964.085        873505.       0.339406E+011   5337.07       0.576422E+007  0.261514E+007
  995.708        873505.       0.341126E+011   5334.84       0.575950E+007  0.260962E+007
  1027.33        873505.       0.342853E+011   5332.59       0.575475E+007  0.260407E+007
  1058.95        873505.       0.344588E+011   5330.34       0.574998E+007  0.259849E+007
  1090.58        873505.       0.346328E+011   5328.07       0.574519E+007  0.259289E+007
  1122.20        873505.       0.348074E+011   5325.80       0.574039E+007  0.258726E+007
  1153.82        873505.       0.349825E+011   5323.51       0.573556E+007  0.258162E+007
  1185.45        873505.       0.351581E+011   5321.22       0.573072E+007  0.257595E+007
  1217.07        873505.       0.353342E+011   5318.91       0.572586E+007  0.257026E+007
  1248.69        873505.       0.355106E+011   5316.60       0.572099E+007  0.256455E+007
  1280.32        873505.       0.356874E+011   5314.28       0.571611E+007  0.255883E+007
  1311.94        873505.       0.358645E+011   5311.96       0.571121E+007  0.255309E+007
  1343.56        873505.       0.360419E+011   5309.62       0.570630E+007  0.254733E+007
  1375.18        873505.       0.362196E+011   5307.28       0.570138E+007  0.254156E+007
  1406.81        873505.       0.363975E+011   5304.94       0.569645E+007  0.253577E+007
  1438.43        873505.       0.365757E+011   5302.59       0.569150E+007  0.252997E+007
  1470.05        873505.       0.367541E+011   5300.23       0.568655E+007  0.252416E+007
  1501.68        873505.       0.369327E+011   5297.86       0.568159E+007  0.251833E+007
  1533.30        873505.       0.371114E+011   5295.49       0.567662E+007  0.251249E+007
  300.000        885471.       0.320880E+011   5387.96       0.589126E+007  0.272606E+007
  331.623        885471.       0.321847E+011   5386.74       0.588865E+007  0.272301E+007
  363.246        885471.       0.322917E+011   5385.38       0.588575E+007  0.271963E+007
  394.869        885471.       0.324077E+011   5383.92       0.588261E+007  0.271597E+007
  426.492        885471.       0.325314E+011   5382.35       0.587926E+007  0.271207E+007
  458.115        885471.       0.326617E+011   5380.70       0.587572E+007  0.270795E+007
  489.738        885471.       0.327978E+011   5378.97       0.587203E+007  0.270365E+007
  521.362        885471.       0.329388E+011   5377.18       0.586820E+007  0.269919E+007
  552.985        885471.       0.330842E+011   5375.33       0.586425E+007  0.269459E+007
  584.608        885471.       0.332333E+011   5373.44       0.586020E+007  0.268987E+007
  616.231        885471.       0.333856E+011   5371.50       0.585606E+007  0.268504E+007
  647.854        885471.       0.335409E+011   5369.52       0.585183E+007  0.268012E+007
  679.477        885471.       0.336987E+011   5367.50       0.584753E+007  0.267511E+007
  711.100        885471.       0.338587E+011   5365.46       0.584317E+007  0.267003E+007
  742.723        885471.       0.340207E+011   5363.39       0.583876E+007  0.266488E+007
  774.346        885471.       0.341844E+011   5361.29       0.583429E+007  0.265967E+007
  805.969        885471.       0.343498E+011   5359.17       0.582978E+007  0.265441E+007
  837.592        885471.       0.345165E+011   5357.03       0.582522E+007  0.264909E+007
  869.215        885471.       0.346844E+011   5354.87       0.582063E+007  0.264373E+007
  900.838        885471.       0.348535E+011   5352.70       0.581600E+007  0.263834E+007
  932.462        885471.       0.350237E+011   5350.50       0.581135E+007  0.263290E+007
  964.085        885471.       0.351947E+011   5348.30       0.580666E+007  0.262743E+007
  995.708        885471.       0.353666E+011   5346.08       0.580195E+007  0.262192E+007
  1027.33        885471.       0.355392E+011   5343.85       0.579722E+007  0.261639E+007
  1058.95        885471.       0.357125E+011   5341.60       0.579246E+007  0.261083E+007
  1090.58        885471.       0.358864E+011   5339.35       0.578768E+007  0.260525E+007
  1122.20        885471.       0.360609E+011   5337.09       0.578288E+007  0.259964E+007
  1153.82        885471.       0.362359E+011   5334.81       0.577807E+007  0.259401E+007
  1185.45        885471.       0.364114E+011   5332.53       0.577324E+007  0.258836E+007
  1217.07        885471.       0.365873E+011   5330.24       0.576839E+007  0.258268E+007
  1248.69        885471.       0.367636E+011   5327.94       0.576353E+007  0.257699E+007
  1280.32        885471.       0.369403E+011   5325.63       0.575866E+007  0.257129E+007
  1311.94        885471.       0.371173E+011   5323.32       0.575377E+007  0.256556E+007
  1343.56        885471.       0.372946E+011   5321.00       0.574887E+007  0.255982E+007
  1375.18        885471.       0.374722E+011   5318.67       0.574396E+007  0.255407E+007
  1406.81        885471.       0.376501E+011   5316.34       0.573904E+007  0.254830E+007
  1438.43        885471.       0.378281E+011   5313.99       0.573411E+007  0.254251E+007
  1470.05        885471.       0.380064E+011   5311.65       0.572917E+007  0.253672E+007
  1501.68        885471.       0.381849E+011   5309.30       0.572422E+007  0.253091E+007
  1533.30        885471.       0.383636E+011   5306.94       0.571926E+007  0.252509E+007
  300.000        897437.       0.333486E+011   5398.90       0.593342E+007  0.273794E+007
  331.623        897437.       0.334450E+011   5397.69       0.593082E+007  0.273490E+007
  363.246        897437.       0.335517E+011   5396.35       0.592793E+007  0.273154E+007
  394.869        897437.       0.336673E+011   5394.89       0.592480E+007  0.272790E+007
  426.492        897437.       0.337907E+011   5393.33       0.592146E+007  0.272401E+007
  458.115        897437.       0.339208E+011   5391.69       0.591794E+007  0.271991E+007
  489.738        897437.       0.340566E+011   5389.98       0.591426E+007  0.271563E+007
  521.362        897437.       0.341974E+011   5388.20       0.591044E+007  0.271119E+007
  552.985        897437.       0.343426E+011   5386.36       0.590651E+007  0.270661E+007
  584.608        897437.       0.344914E+011   5384.47       0.590247E+007  0.270190E+007
  616.231        897437.       0.346436E+011   5382.54       0.589833E+007  0.269709E+007
  647.854        897437.       0.347987E+011   5380.58       0.589412E+007  0.269218E+007
  679.477        897437.       0.349563E+011   5378.57       0.588984E+007  0.268719E+007
  711.100        897437.       0.351161E+011   5376.54       0.588549E+007  0.268213E+007
  742.723        897437.       0.352780E+011   5374.48       0.588108E+007  0.267700E+007
  774.346        897437.       0.354416E+011   5372.39       0.587662E+007  0.267180E+007
  805.969        897437.       0.356067E+011   5370.28       0.587212E+007  0.266656E+007
  837.592        897437.       0.357733E+011   5368.16       0.586758E+007  0.266126E+007
  869.215        897437.       0.359411E+011   5366.01       0.586300E+007  0.265592E+007
  900.838        897437.       0.361101E+011   5363.84       0.585838E+007  0.265054E+007
  932.462        897437.       0.362801E+011   5361.66       0.585373E+007  0.264512E+007
  964.085        897437.       0.364510E+011   5359.47       0.584906E+007  0.263966E+007
  995.708        897437.       0.366227E+011   5357.26       0.584436E+007  0.263417E+007
  1027.33        897437.       0.367952E+011   5355.04       0.583963E+007  0.262866E+007
  1058.95        897437.       0.369684E+011   5352.81       0.583489E+007  0.262312E+007
  1090.58        897437.       0.371422E+011   5350.57       0.583012E+007  0.261755E+007
  1122.20        897437.       0.373166E+011   5348.31       0.582533E+007  0.261195E+007
  1153.82        897437.       0.374915E+011   5346.05       0.582053E+007  0.260634E+007
  1185.45        897437.       0.376669E+011   5343.78       0.581571E+007  0.260070E+007
  1217.07        897437.       0.378427E+011   5341.50       0.581087E+007  0.259505E+007
  1248.69        897437.       0.380189E+011   5339.21       0.580602E+007  0.258938E+007
  1280.32        897437.       0.381955E+011   5336.92       0.580116E+007  0.258368E+007
  1311.94        897437.       0.383724E+011   5334.62       0.579628E+007  0.257798E+007
  1343.56        897437.       0.385496E+011   5332.31       0.579139E+007  0.257225E+007
  1375.18        897437.       0.387271E+011   5329.99       0.578649E+007  0.256651E+007
  1406.81        897437.       0.389048E+011   5327.67       0.578158E+007  0.256076E+007
  1438.43        897437.       0.390828E+011   5325.34       0.577666E+007  0.255500E+007
  1470.05        897437.       0.392610E+011   5323.01       0.577173E+007  0.254922E+007
  1501.68        897437.       0.394394E+011   5320.67       0.576679E+007  0.254342E+007
  1533.30        897437.       0.396180E+011   5318.32       0.576184E+007  0.253762E+007
  300.000        909402.       0.346112E+011   5409.79       0.597554E+007  0.274977E+007
  331.623        909402.       0.347073E+011   5408.59       0.597294E+007  0.274675E+007
  363.246        909402.       0.348137E+011   5407.25       0.597007E+007  0.274340E+007
  394.869        909402.       0.349291E+011   5405.81       0.596695E+007  0.273978E+007
  426.492        909402.       0.350522E+011   5404.26       0.596363E+007  0.273591E+007
  458.115        909402.       0.351820E+011   5402.63       0.596012E+007  0.273182E+007
  489.738        909402.       0.353176E+011   5400.92       0.595645E+007  0.272756E+007
  521.362        909402.       0.354582E+011   5399.15       0.595264E+007  0.272313E+007
  552.985        909402.       0.356031E+011   5397.33       0.594872E+007  0.271857E+007
  584.608        909402.       0.357518E+011   5395.45       0.594469E+007  0.271388E+007
  616.231        909402.       0.359037E+011   5393.53       0.594057E+007  0.270908E+007
  647.854        909402.       0.360586E+011   5391.58       0.593636E+007  0.270420E+007
  679.477        909402.       0.362160E+011   5389.58       0.593209E+007  0.269922E+007
  711.100        909402.       0.363757E+011   5387.56       0.592775E+007  0.269417E+007
  742.723        909402.       0.365374E+011   5385.51       0.592336E+007  0.268906E+007
  774.346        909402.       0.367008E+011   5383.44       0.591891E+007  0.268388E+007
  805.969        909402.       0.368658E+011   5381.34       0.591442E+007  0.267865E+007
  837.592        909402.       0.370323E+011   5379.22       0.590988E+007  0.267337E+007
  869.215        909402.       0.372000E+011   5377.09       0.590531E+007  0.266804E+007
  900.838        909402.       0.373688E+011   5374.93       0.590071E+007  0.266268E+007
  932.462        909402.       0.375387E+011   5372.76       0.589607E+007  0.265727E+007
  964.085        909402.       0.377094E+011   5370.58       0.589141E+007  0.265184E+007
  995.708        909402.       0.378811E+011   5368.39       0.588672E+007  0.264637E+007
  1027.33        909402.       0.380534E+011   5366.18       0.588200E+007  0.264087E+007
  1058.95        909402.       0.382265E+011   5363.96       0.587727E+007  0.263534E+007
  1090.58        909402.       0.384002E+011   5361.73       0.587251E+007  0.262979E+007
  1122.20        909402.       0.385745E+011   5359.48       0.586773E+007  0.262421E+007
  1153.82        909402.       0.387493E+011   5357.23       0.586294E+007  0.261861E+007
  1185.45        909402.       0.389246E+011   5354.97       0.585813E+007  0.261299E+007
  1217.07        909402.       0.391003E+011   5352.71       0.585330E+007  0.260736E+007
  1248.69        909402.       0.392764E+011   5350.43       0.584846E+007  0.260170E+007
  1280.32        909402.       0.394529E+011   5348.15       0.584361E+007  0.259602E+007
  1311.94        909402.       0.396297E+011   5345.86       0.583874E+007  0.259033E+007
  1343.56        909402.       0.398068E+011   5343.56       0.583386E+007  0.258462E+007
  1375.18        909402.       0.399842E+011   5341.25       0.582898E+007  0.257890E+007
  1406.81        909402.       0.401618E+011   5338.94       0.582407E+007  0.257317E+007
  1438.43        909402.       0.403397E+011   5336.63       0.581916E+007  0.256742E+007
  1470.05        909402.       0.405178E+011   5334.30       0.581424E+007  0.256165E+007
  1501.68        909402.       0.406962E+011   5331.98       0.580931E+007  0.255588E+007
  1533.30        909402.       0.408746E+011   5329.64       0.580438E+007  0.255009E+007
  300.000        921368.       0.358760E+011   5420.62       0.601761E+007  0.276154E+007
  331.623        921368.       0.359717E+011   5419.43       0.601502E+007  0.275854E+007
  363.246        921368.       0.360778E+011   5418.10       0.601216E+007  0.275521E+007
  394.869        921368.       0.361929E+011   5416.67       0.600906E+007  0.275160E+007
  426.492        921368.       0.363158E+011   5415.13       0.600574E+007  0.274775E+007
  458.115        921368.       0.364453E+011   5413.51       0.600225E+007  0.274368E+007
  489.738        921368.       0.365806E+011   5411.82       0.599859E+007  0.273943E+007
  521.362        921368.       0.367210E+011   5410.06       0.599480E+007  0.273502E+007
  552.985        921368.       0.368657E+011   5408.24       0.599088E+007  0.273047E+007
  584.608        921368.       0.370142E+011   5406.38       0.598686E+007  0.272580E+007
  616.231        921368.       0.371660E+011   5404.47       0.598275E+007  0.272103E+007
  647.854        921368.       0.373207E+011   5402.52       0.597856E+007  0.271615E+007
  679.477        921368.       0.374779E+011   5400.54       0.597430E+007  0.271120E+007
  711.100        921368.       0.376374E+011   5398.53       0.596997E+007  0.270616E+007
  742.723        921368.       0.377989E+011   5396.49       0.596559E+007  0.270106E+007
  774.346        921368.       0.379622E+011   5394.42       0.596115E+007  0.269590E+007
  805.969        921368.       0.381271E+011   5392.34       0.595667E+007  0.269069E+007
  837.592        921368.       0.382934E+011   5390.23       0.595215E+007  0.268542E+007
  869.215        921368.       0.384609E+011   5388.11       0.594758E+007  0.268012E+007
  900.838        921368.       0.386296E+011   5385.96       0.594299E+007  0.267477E+007
  932.462        921368.       0.387994E+011   5383.81       0.593836E+007  0.266938E+007
  964.085        921368.       0.389700E+011   5381.64       0.593371E+007  0.266396E+007
  995.708        921368.       0.391415E+011   5379.45       0.592903E+007  0.265850E+007
  1027.33        921368.       0.393138E+011   5377.25       0.592433E+007  0.265302E+007
  1058.95        921368.       0.394868E+011   5375.04       0.591960E+007  0.264751E+007
  1090.58        921368.       0.396604E+011   5372.82       0.591485E+007  0.264197E+007
  1122.20        921368.       0.398345E+011   5370.59       0.591009E+007  0.263641E+007
  1153.82        921368.       0.400092E+011   5368.35       0.590530E+007  0.263083E+007
  1185.45        921368.       0.401844E+011   5366.11       0.590050E+007  0.262523E+007
  1217.07        921368.       0.403600E+011   5363.85       0.589569E+007  0.261960E+007
  1248.69        921368.       0.405360E+011   5361.58       0.589086E+007  0.261396E+007
  1280.32        921368.       0.407124E+011   5359.31       0.588601E+007  0.260830E+007
  1311.94        921368.       0.408891E+011   5357.03       0.588116E+007  0.260263E+007
  1343.56        921368.       0.410661E+011   5354.75       0.587629E+007  0.259694E+007
  1375.18        921368.       0.412434E+011   5352.45       0.587141E+007  0.259123E+007
  1406.81        921368.       0.414210E+011   5350.16       0.586652E+007  0.258551E+007
  1438.43        921368.       0.415988E+011   5347.85       0.586162E+007  0.257978E+007
  1470.05        921368.       0.417768E+011   5345.54       0.585671E+007  0.257403E+007
  1501.68        921368.       0.419551E+011   5343.22       0.585179E+007  0.256827E+007
  1533.30        921368.       0.421335E+011   5340.90       0.584686E+007  0.256250E+007
  300.000        933334.       0.372467E+011   5448.40       0.599741E+007  0.279111E+007
  331.623        933334.       0.372585E+011   5433.55       0.604477E+007  0.277378E+007
  363.246        933334.       0.373440E+011   5428.90       0.605421E+007  0.276697E+007
  394.869        933334.       0.374588E+011   5427.47       0.605112E+007  0.276337E+007
  426.492        933334.       0.375814E+011   5425.95       0.604782E+007  0.275953E+007
  458.115        933334.       0.377107E+011   5424.34       0.604433E+007  0.275549E+007
  489.738        933334.       0.378458E+011   5422.65       0.604069E+007  0.275125E+007
  521.362        933334.       0.379859E+011   5420.90       0.603690E+007  0.274686E+007
  552.985        933334.       0.381304E+011   5419.10       0.603300E+007  0.274233E+007
  584.608        933334.       0.382787E+011   5417.24       0.602899E+007  0.273767E+007
  616.231        933334.       0.384303E+011   5415.35       0.602489E+007  0.273291E+007
  647.854        933334.       0.385848E+011   5413.41       0.602071E+007  0.272806E+007
  679.477        933334.       0.387418E+011   5411.44       0.601646E+007  0.272311E+007
  711.100        933334.       0.389012E+011   5409.44       0.601214E+007  0.271810E+007
  742.723        933334.       0.390625E+011   5407.41       0.600777E+007  0.271301E+007
  774.346        933334.       0.392257E+011   5405.36       0.600334E+007  0.270787E+007
  805.969        933334.       0.393904E+011   5403.28       0.599887E+007  0.270267E+007
  837.592        933334.       0.395566E+011   5401.18       0.599436E+007  0.269742E+007
  869.215        933334.       0.397240E+011   5399.07       0.598981E+007  0.269213E+007
  900.838        933334.       0.398926E+011   5396.94       0.598522E+007  0.268680E+007
  932.462        933334.       0.400622E+011   5394.79       0.598061E+007  0.268142E+007
  964.085        933334.       0.402327E+011   5392.63       0.597596E+007  0.267602E+007
  995.708        933334.       0.404041E+011   5390.46       0.597129E+007  0.267058E+007
  1027.33        933334.       0.405763E+011   5388.27       0.596660E+007  0.266511E+007
  1058.95        933334.       0.407491E+011   5386.07       0.596188E+007  0.265962E+007
  1090.58        933334.       0.409226E+011   5383.86       0.595715E+007  0.265410E+007
  1122.20        933334.       0.410967E+011   5381.65       0.595239E+007  0.264855E+007
  1153.82        933334.       0.412713E+011   5379.42       0.594762E+007  0.264299E+007
  1185.45        933334.       0.414464E+011   5377.18       0.594283E+007  0.263740E+007
  1217.07        933334.       0.416219E+011   5374.93       0.593802E+007  0.263179E+007
  1248.69        933334.       0.417978E+011   5372.68       0.593320E+007  0.262617E+007
  1280.32        933334.       0.419741E+011   5370.42       0.592837E+007  0.262052E+007
  1311.94        933334.       0.421507E+011   5368.15       0.592352E+007  0.261487E+007
  1343.56        933334.       0.423276E+011   5365.88       0.591866E+007  0.260919E+007
  1375.18        933334.       0.425048E+011   5363.60       0.591379E+007  0.260350E+007
  1406.81        933334.       0.426823E+011   5361.31       0.590891E+007  0.259780E+007
  1438.43        933334.       0.428601E+011   5359.02       0.590402E+007  0.259208E+007
  1470.05        933334.       0.430380E+011   5356.72       0.589912E+007  0.258635E+007
  1501.68        933334.       0.432161E+011   5354.41       0.589421E+007  0.258061E+007
  1533.30        933334.       0.433945E+011   5352.10       0.588929E+007  0.257485E+007
